* Measurement data measured by REW V5.31.3
* Source: Headset (CX31993 HIFI AUDIO), MICROPHONE (Master Volume), R, volume: 0.250
* Format: 256k Log Swept Sine, 1 sweep at -12.0 dBFS with no timing reference
* Dated: 03 3, 25 11:10:31 AM
* REW Settings:
*  C-weighting compensation: Off
*  Target level: 75.0 dB
* Note: ; 
* Measurement: Moondrop Aria nobass R
* Smoothing: 1/12 octave
* Frequency Step: 96 ppo
* Start Frequency: 0.36621094 Hz
*
* Freq(Hz) SPL(dB) Phase(degrees)
0.366211 30.177 56.9479
0.368865 30.201 56.8912
0.371538 30.238 56.8073
0.374230 30.282 56.7037
0.376942 30.332 56.5869
0.379673 30.386 56.4616
0.382424 30.442 56.3308
0.385196 30.499 56.1966
0.387987 30.558 56.0599
0.390798 30.617 55.9215
0.393630 30.676 55.7816
0.396483 30.737 55.6404
0.399356 30.797 55.4981
0.402250 30.858 55.3547
0.405165 30.920 55.2102
0.408101 30.982 55.0647
0.411058 31.044 54.9182
0.414037 31.107 54.7706
0.417037 31.170 54.6221
0.420059 31.234 54.4725
0.423103 31.298 54.3220
0.426169 31.363 54.1706
0.429257 31.428 54.0182
0.432368 31.494 53.8649
0.435501 31.560 53.7106
0.438656 31.627 53.5555
0.441835 31.694 53.3995
0.445037 31.761 53.2425
0.448262 31.829 53.0847
0.451510 31.898 52.9261
0.454782 31.967 52.7666
0.458077 32.037 52.6062
0.461397 32.107 52.4450
0.464740 32.177 52.2830
0.468108 32.248 52.1201
0.471500 32.320 51.9564
0.474917 32.392 51.7920
0.478358 32.465 51.6267
0.481825 32.538 51.4606
0.485316 32.612 51.2937
0.488833 32.686 51.1260
0.492375 32.761 50.9575
0.495943 32.836 50.7882
0.499537 32.912 50.6182
0.503157 32.988 50.4473
0.506803 33.065 50.2757
0.510475 33.143 50.1032
0.514175 33.221 49.9299
0.517900 33.300 49.7559
0.521653 33.379 49.5810
0.525434 33.459 49.4053
0.529241 33.539 49.2287
0.533076 33.620 49.0514
0.536939 33.701 48.8731
0.540830 33.784 48.6941
0.544749 33.866 48.5141
0.548696 33.950 48.3333
0.552673 34.034 48.1515
0.556677 34.118 47.9689
0.560711 34.203 47.7853
0.564774 34.289 47.6008
0.568867 34.376 47.4153
0.572989 34.463 47.2288
0.577141 34.550 47.0413
0.581324 34.639 46.8527
0.585536 34.728 46.6631
0.589779 34.817 46.4724
0.594053 34.907 46.2806
0.598358 34.998 46.0877
0.602694 35.090 45.8936
0.607061 35.182 45.6983
0.611460 35.275 45.5018
0.615891 35.369 45.3039
0.620354 35.463 45.1048
0.624849 35.558 44.9044
0.629377 35.653 44.7026
0.633938 35.750 44.4993
0.638532 35.847 44.2946
0.643159 35.944 44.0885
0.647819 36.043 43.8807
0.652514 36.142 43.6714
0.657242 36.242 43.4605
0.662005 36.342 43.2478
0.666802 36.444 43.0335
0.671634 36.546 42.8174
0.676501 36.648 42.5994
0.681403 36.752 42.3796
0.686341 36.856 42.1578
0.691314 36.961 41.9340
0.696324 37.067 41.7082
0.701370 37.173 41.4803
0.706452 37.279 41.2503
0.711571 37.386 41.0182
0.716728 37.493 40.7841
0.721921 37.599 40.5480
0.727153 37.704 40.3102
0.732422 37.807 40.0708
0.737729 37.907 39.8304
0.743075 38.006 39.5893
0.748460 38.103 39.3477
0.753883 38.199 39.1059
0.759346 38.295 38.8642
0.764849 38.390 38.6226
0.770391 38.485 38.3811
0.775974 38.579 38.1399
0.781597 38.674 37.8990
0.787261 38.768 37.6583
0.792966 38.862 37.4179
0.798712 38.957 37.1777
0.804500 39.051 36.9379
0.810329 39.146 36.6983
0.816201 39.240 36.4590
0.822116 39.334 36.2200
0.828073 39.428 35.9813
0.834074 39.523 35.7428
0.840118 39.617 35.5046
0.846206 39.711 35.2666
0.852338 39.806 35.0288
0.858514 39.900 34.7912
0.864735 39.994 34.5538
0.871001 40.089 34.3165
0.877313 40.183 34.0794
0.883670 40.278 33.8424
0.890074 40.372 33.6054
0.896524 40.467 33.3685
0.903020 40.562 33.1316
0.909564 40.657 32.8948
0.916155 40.752 32.6578
0.922794 40.847 32.4208
0.929481 40.942 32.1836
0.936216 41.038 31.9463
0.943000 41.133 31.7088
0.949834 41.229 31.4710
0.956717 41.325 31.2329
0.963649 41.421 30.9945
0.970632 41.518 30.7556
0.977666 41.615 30.5164
0.984750 41.712 30.2766
0.991886 41.809 30.0363
0.999074 41.907 29.7954
1.006314 42.005 29.5538
1.013606 42.104 29.3115
1.020951 42.203 29.0684
1.028349 42.302 28.8245
1.035801 42.402 28.5796
1.043307 42.503 28.3338
1.050867 42.604 28.0870
1.058482 42.705 27.8392
1.066152 42.807 27.5902
1.073878 42.910 27.3400
1.081660 43.013 27.0888
1.089498 43.117 26.8365
1.097393 43.221 26.5832
1.105345 43.326 26.3292
1.113355 43.430 26.0745
1.121423 43.535 25.8193
1.129549 43.641 25.5637
1.137734 43.746 25.3078
1.145979 43.851 25.0517
1.154283 43.957 24.7954
1.162647 44.062 24.5390
1.171072 44.168 24.2824
1.179558 44.273 24.0257
1.188106 44.379 23.7689
1.196715 44.485 23.5119
1.205387 44.591 23.2550
1.214122 44.697 22.9979
1.222920 44.803 22.7408
1.231782 44.910 22.4837
1.240708 45.016 22.2266
1.249699 45.123 21.9695
1.258754 45.229 21.7124
1.267876 45.336 21.4553
1.277063 45.443 21.1983
1.286318 45.551 20.9414
1.295639 45.658 20.6846
1.305027 45.766 20.4278
1.314484 45.874 20.1713
1.324009 45.982 19.9148
1.333604 46.091 19.6586
1.343268 46.200 19.4025
1.353002 46.309 19.1467
1.362806 46.419 18.8910
1.372681 46.528 18.6357
1.382628 46.639 18.3806
1.392647 46.749 18.1259
1.402739 46.860 17.8715
1.412904 46.972 17.6175
1.423142 47.084 17.3639
1.433455 47.196 17.1110
1.443843 47.309 16.8589
1.454305 47.423 16.6077
1.464844 47.536 16.3577
1.475459 47.650 16.1093
1.486150 47.764 15.8626
1.496920 47.879 15.6178
1.507767 47.993 15.3750
1.518693 48.108 15.1340
1.529698 48.223 14.8947
1.540783 48.338 14.6569
1.551948 48.453 14.4204
1.563194 48.569 14.1850
1.574521 48.684 13.9503
1.585931 48.800 13.7162
1.597423 48.915 13.4825
1.608999 49.031 13.2488
1.620658 49.148 13.0150
1.632402 49.264 12.7808
1.644232 49.381 12.5460
1.656146 49.497 12.3104
1.668147 49.615 12.0738
1.680235 49.732 11.8358
1.692411 49.850 11.5964
1.704675 49.968 11.3553
1.717028 50.086 11.1123
1.729470 50.205 10.8673
1.742003 50.324 10.6199
1.754626 50.443 10.3702
1.767341 50.563 10.1180
1.780147 50.683 9.8633
1.793047 50.804 9.6061
1.806040 50.925 9.3465
1.819128 51.047 9.0850
1.832310 51.168 8.8220
1.845587 51.291 8.5582
1.858961 51.413 8.2940
1.872432 51.536 8.0301
1.886001 51.659 7.7664
1.899667 51.782 7.5031
1.913433 51.905 7.2400
1.927299 52.029 6.9770
1.941265 52.153 6.7139
1.955332 52.277 6.4503
1.969501 52.401 6.1861
1.983773 52.525 5.9209
1.998148 52.650 5.6544
2.012627 52.775 5.3864
2.027212 52.900 5.1166
2.041902 53.025 4.8447
2.056698 53.151 4.5704
2.071602 53.277 4.2935
2.086614 53.403 4.0137
2.101734 53.530 3.7308
2.116964 53.657 3.4445
2.132304 53.784 3.1549
2.147756 53.911 2.8617
2.163320 54.039 2.5651
2.178996 54.167 2.2655
2.194786 54.295 1.9633
2.210690 54.424 1.6590
2.226710 54.553 1.3535
2.242845 54.682 1.0470
2.259098 54.811 0.7399
2.275468 54.941 0.4322
2.291957 55.070 0.1237
2.308566 55.200 -0.1858
2.325295 55.330 -0.4966
2.342145 55.460 -0.8090
2.359117 55.590 -1.1235
2.376212 55.721 -1.4404
2.393431 55.851 -1.7601
2.410775 55.982 -2.0830
2.428244 56.113 -2.4095
2.445840 56.244 -2.7400
2.463564 56.375 -3.0748
2.481416 56.506 -3.4143
2.499397 56.637 -3.7586
2.517509 56.768 -4.1078
2.535752 56.900 -4.4619
2.554127 57.031 -4.8207
2.572635 57.162 -5.1835
2.591277 57.294 -5.5500
2.610055 57.425 -5.9194
2.628968 57.557 -6.2916
2.648019 57.688 -6.6662
2.667208 57.819 -7.0433
2.686535 57.951 -7.4230
2.706003 58.082 -7.8055
2.725612 58.213 -8.1909
2.745363 58.344 -8.5796
2.765257 58.475 -8.9718
2.785295 58.606 -9.3679
2.805478 58.736 -9.7682
2.825808 58.867 -10.1730
2.846285 58.997 -10.5825
2.866910 59.127 -10.9972
2.887685 59.256 -11.4171
2.908611 59.385 -11.8425
2.929688 59.514 -12.2732
2.950917 59.643 -12.7091
2.972301 59.771 -13.1499
2.993839 59.899 -13.5954
3.015534 60.026 -14.0451
3.037386 60.153 -14.4987
3.059396 60.280 -14.9560
3.081565 60.406 -15.4169
3.103896 60.532 -15.8810
3.126388 60.657 -16.3483
3.149043 60.781 -16.8187
3.171862 60.905 -17.2922
3.194847 61.029 -17.7688
3.217998 61.151 -18.2487
3.241317 61.274 -18.7321
3.264805 61.395 -19.2191
3.288463 61.516 -19.7103
3.312293 61.635 -20.2058
3.336295 61.755 -20.7060
3.360471 61.873 -21.2107
3.384822 61.990 -21.7199
3.409350 62.107 -22.2329
3.434056 62.223 -22.7493
3.458940 62.337 -23.2683
3.484005 62.451 -23.7894
3.509252 62.564 -24.3120
3.534681 62.676 -24.8355
3.560295 62.787 -25.3596
3.586094 62.897 -25.8841
3.612081 63.007 -26.4090
3.638255 63.115 -26.9347
3.664620 63.222 -27.4617
3.691175 63.328 -27.9907
3.717923 63.432 -28.5221
3.744864 63.536 -29.0561
3.772001 63.638 -29.5923
3.799335 63.739 -30.1300
3.826866 63.839 -30.6683
3.854597 63.938 -31.2060
3.882529 64.035 -31.7423
3.910664 64.132 -32.2760
3.939002 64.227 -32.8064
3.967546 64.322 -33.3330
3.996296 64.415 -33.8557
4.025255 64.507 -34.3749
4.054423 64.598 -34.8913
4.083804 64.687 -35.4054
4.113396 64.776 -35.9176
4.143204 64.863 -36.4278
4.173227 64.949 -36.9355
4.203468 65.033 -37.4397
4.233928 65.117 -37.9395
4.264609 65.200 -38.4336
4.295512 65.282 -38.9212
4.326639 65.363 -39.4013
4.357992 65.443 -39.8735
4.389572 65.523 -40.3376
4.421380 65.602 -40.7940
4.453419 65.680 -41.2431
4.485691 65.757 -41.6854
4.518196 65.833 -42.1209
4.550936 65.909 -42.5496
4.583914 65.984 -42.9711
4.617131 66.059 -43.3849
4.650589 66.134 -43.7905
4.684289 66.209 -44.1873
4.718233 66.284 -44.5747
4.752424 66.359 -44.9524
4.786862 66.434 -45.3203
4.821549 66.510 -45.6785
4.856488 66.585 -46.0276
4.891680 66.661 -46.3681
4.927127 66.737 -46.7008
4.962831 66.814 -47.0264
4.998794 66.891 -47.3454
5.035017 66.970 -47.6585
5.071503 67.049 -47.9658
5.108253 67.130 -48.2673
5.145270 67.212 -48.5630
5.182555 67.295 -48.8529
5.220110 67.379 -49.1373
5.257937 67.465 -49.4172
5.296038 67.552 -49.6939
5.334415 67.640 -49.9690
5.373071 67.729 -50.2441
5.412006 67.820 -50.5206
5.451224 67.912 -50.7995
5.490725 68.006 -51.0812
5.530514 68.101 -51.3659
5.570590 68.198 -51.6535
5.610957 68.296 -51.9447
5.651616 68.396 -52.2402
5.692570 68.496 -52.5415
5.733821 68.598 -52.8501
5.775370 68.700 -53.1673
5.817221 68.803 -53.4943
5.859375 68.907 -53.8317
5.901834 69.012 -54.1797
5.944602 69.117 -54.5380
5.987679 69.222 -54.9066
6.031068 69.328 -55.2856
6.074771 69.434 -55.6751
6.118792 69.539 -56.0756
6.163131 69.644 -56.4875
6.207792 69.749 -56.9111
6.252776 69.852 -57.3466
6.298086 69.955 -57.7938
6.343725 70.057 -58.2520
6.389694 70.158 -58.7203
6.435996 70.258 -59.1977
6.482634 70.356 -59.6833
6.529610 70.453 -60.1763
6.576926 70.548 -60.6763
6.624585 70.641 -61.1830
6.672590 70.732 -61.6960
6.720942 70.822 -62.2145
6.769645 70.909 -62.7372
6.818700 70.995 -63.2623
6.868111 71.079 -63.7882
6.917881 71.160 -64.3137
6.968010 71.240 -64.8378
7.018504 71.318 -65.3602
7.069362 71.393 -65.8803
7.120590 71.467 -66.3971
7.172189 71.539 -66.9094
7.224161 71.610 -67.4157
7.276511 71.679 -67.9146
7.329239 71.747 -68.4053
7.382350 71.813 -68.8872
7.435845 71.878 -69.3602
7.489729 71.943 -69.8241
7.544002 72.007 -70.2786
7.598669 72.070 -70.7233
7.653732 72.133 -71.1578
7.709194 72.196 -71.5820
7.765058 72.259 -71.9959
7.821327 72.322 -72.4001
7.878004 72.386 -72.7955
7.935091 72.450 -73.1831
7.992592 72.515 -73.5638
8.050510 72.581 -73.9384
8.108847 72.649 -74.3077
8.167607 72.717 -74.6727
8.226793 72.787 -75.0346
8.286408 72.858 -75.3953
8.346454 72.930 -75.7562
8.406936 73.003 -76.1190
8.467856 73.078 -76.4849
8.529218 73.153 -76.8547
8.591024 73.230 -77.2295
8.653278 73.308 -77.6106
8.715983 73.386 -77.9992
8.779143 73.465 -78.3962
8.842760 73.543 -78.8024
8.906839 73.622 -79.2181
8.971381 73.701 -79.6433
9.036392 73.780 -80.0780
9.101873 73.858 -80.5221
9.167829 73.934 -80.9754
9.234263 74.010 -81.4375
9.301178 74.085 -81.9076
9.368578 74.158 -82.3846
9.436467 74.229 -82.8671
9.504847 74.299 -83.3539
9.573723 74.367 -83.8438
9.643099 74.432 -84.3354
9.712976 74.496 -84.8272
9.783361 74.558 -85.3172
9.854255 74.617 -85.8038
9.925663 74.675 -86.2851
9.997588 74.731 -86.7599
10.070035 74.785 -87.2269
10.143007 74.838 -87.6844
10.216507 74.890 -88.1310
10.290540 74.940 -88.5656
10.365109 74.990 -88.9875
10.440219 75.039 -89.3963
10.515873 75.088 -89.7916
10.592076 75.137 -90.1735
10.668830 75.187 -90.5421
10.746141 75.237 -90.8981
10.824012 75.288 -91.2426
10.902447 75.341 -91.5771
10.981451 75.395 -91.9033
11.061027 75.451 -92.2229
11.141180 75.509 -92.5380
11.221913 75.569 -92.8510
11.303232 75.631 -93.1646
11.385140 75.695 -93.4812
11.467641 75.760 -93.8031
11.550741 75.827 -94.1326
11.634442 75.896 -94.4717
11.718750 75.965 -94.8225
11.803669 76.035 -95.1863
11.889203 76.105 -95.5640
11.975357 76.175 -95.9560
12.062136 76.244 -96.3624
12.149543 76.311 -96.7826
12.237583 76.377 -97.2156
12.326262 76.441 -97.6595
12.415583 76.503 -98.1121
12.505552 76.561 -98.5709
12.596172 76.617 -99.0330
12.687449 76.669 -99.4951
12.779387 76.718 -99.9536
12.871992 76.764 -100.4049
12.965268 76.807 -100.8458
13.059220 76.848 -101.2731
13.153852 76.886 -101.6839
13.249170 76.923 -102.0758
13.345179 76.958 -102.4473
13.441884 76.993 -102.7976
13.539289 77.029 -103.1267
13.637401 77.065 -103.4355
13.736223 77.103 -103.7261
13.835761 77.142 -104.0013
13.936021 77.185 -104.2647
14.037007 77.230 -104.5206
14.138725 77.278 -104.7736
14.241180 77.330 -105.0287
14.344377 77.384 -105.2904
14.448323 77.440 -105.5631
14.553021 77.499 -105.8501
14.658478 77.558 -106.1543
14.764700 77.618 -106.4773
14.871691 77.677 -106.8194
14.979457 77.736 -107.1798
15.088005 77.792 -107.5567
15.197339 77.847 -107.9474
15.307465 77.899 -108.3482
15.418389 77.948 -108.7549
15.530117 77.994 -109.1636
15.642655 78.037 -109.5699
15.756008 78.078 -109.9703
15.870182 78.117 -110.3618
15.985184 78.154 -110.7425
16.101019 78.191 -111.1119
16.217694 78.229 -111.4703
16.335214 78.266 -111.8195
16.453586 78.305 -112.1626
16.572815 78.346 -112.5032
16.692909 78.388 -112.8453
16.813872 78.432 -113.1934
16.935713 78.477 -113.5511
17.058436 78.522 -113.9217
17.182048 78.567 -114.3069
17.306556 78.612 -114.7074
17.431967 78.655 -115.1223
17.558286 78.696 -115.5492
17.685521 78.734 -115.9846
17.813677 78.768 -116.4238
17.942762 78.800 -116.8618
18.072783 78.828 -117.2934
18.203746 78.854 -117.7137
18.335658 78.878 -118.1187
18.468526 78.900 -118.5055
18.602356 78.922 -118.8728
18.737156 78.944 -119.2207
18.872934 78.967 -119.5509
19.009695 78.993 -119.8665
19.147447 79.020 -120.1712
19.286197 79.050 -120.4695
19.425953 79.082 -120.7659
19.566721 79.117 -121.0642
19.708510 79.153 -121.3677
19.851326 79.191 -121.6786
19.995177 79.230 -121.9981
20.140070 79.269 -122.3264
20.286013 79.308 -122.6631
20.433014 79.347 -123.0074
20.581080 79.386 -123.3584
20.730219 79.424 -123.7153
20.880439 79.462 -124.0776
21.031747 79.498 -124.4450
21.184152 79.534 -124.8172
21.337661 79.569 -125.1939
21.492282 79.603 -125.5740
21.648024 79.635 -125.9558
21.804895 79.664 -126.3366
21.962902 79.692 -126.7129
22.122054 79.717 -127.0803
22.282360 79.740 -127.4346
22.443827 79.762 -127.7716
22.606464 79.783 -128.0889
22.770280 79.805 -128.3855
22.935283 79.829 -128.6634
23.101481 79.855 -128.9268
23.268884 79.885 -129.1827
23.437500 79.919 -129.4397
23.607338 79.957 -129.7072
23.778406 79.998 -129.9941
23.950714 80.041 -130.3074
24.124271 80.084 -130.6510
24.299086 80.126 -131.0253
24.475167 80.165 -131.4269
24.652524 80.200 -131.8489
24.831166 80.230 -132.2823
25.011103 80.254 -132.7165
25.192344 80.274 -133.1414
25.374898 80.290 -133.5484
25.558775 80.303 -133.9318
25.743984 80.316 -134.2896
25.930536 80.329 -134.6232
26.118439 80.345 -134.9380
26.307704 80.363 -135.2415
26.498341 80.385 -135.5429
26.690359 80.409 -135.8508
26.883768 80.435 -136.1721
27.078579 80.461 -136.5110
27.274801 80.486 -136.8680
27.472446 80.509 -137.2394
27.671522 80.527 -137.6184
27.872042 80.542 -137.9953
28.074014 80.552 -138.3592
28.277450 80.559 -138.6994
28.482360 80.563 -139.0073
28.688755 80.566 -139.2776
28.896645 80.571 -139.5102
29.106042 80.579 -139.7101
29.316957 80.592 -139.8870
29.529400 80.611 -140.0538
29.743382 80.635 -140.2246
29.958915 80.664 -140.4119
30.176009 80.696 -140.6244
30.394677 80.729 -140.8662
30.614929 80.761 -141.1369
30.836778 80.791 -141.4326
31.060234 80.818 -141.7483
31.285309 80.843 -142.0799
31.512015 80.865 -142.4253
31.740364 80.884 -142.7842
31.970368 80.900 -143.1572
32.202039 80.911 -143.5427
32.435388 80.917 -143.9351
32.670428 80.917 -144.3238
32.907171 80.911 -144.6944
33.145630 80.899 -145.0323
33.385817 80.887 -145.3280
33.627745 80.876 -145.5821
33.871425 80.871 -145.8079
34.116871 80.873 -146.0303
34.364096 80.884 -146.2788
34.613113 80.899 -146.5784
34.863934 80.913 -146.9392
35.116572 80.921 -147.3505
35.371041 80.918 -147.7813
35.627354 80.903 -148.1873
35.885525 80.879 -148.5238
36.145566 80.854 -148.7602
36.407492 80.836 -148.8922
36.671316 80.834 -148.9468
36.937051 80.853 -148.9766
37.204712 80.892 -149.0439
37.474313 80.947 -149.2003
37.745867 81.007 -149.4715
38.019389 81.064 -149.8510
38.294893 81.111 -150.3067
38.572394 81.144 -150.7930
38.851905 81.166 -151.2664
39.133442 81.180 -151.6970
39.417019 81.191 -152.0737
39.702651 81.202 -152.4026
39.990353 81.216 -152.6992
40.280140 81.232 -152.9793
40.572026 81.249 -153.2524
40.866028 81.265 -153.5203
41.162160 81.280 -153.7797
41.460438 81.295 -154.0276
41.760877 81.309 -154.2648
42.063494 81.325 -154.4970
42.368303 81.340 -154.7323
42.675322 81.355 -154.9776
42.984565 81.369 -155.2357
43.296048 81.379 -155.5041
43.609789 81.386 -155.7765
43.925804 81.390 -156.0459
44.244108 81.392 -156.3066
44.564719 81.392 -156.5567
44.887654 81.391 -156.7982
45.212928 81.392 -157.0360
45.540560 81.393 -157.2759
45.870565 81.396 -157.5228
46.202962 81.397 -157.7789
46.537768 81.399 -158.0426
46.875000 81.399 -158.3099
47.214676 81.398 -158.5756
47.556813 81.397 -158.8357
47.901429 81.396 -159.0891
48.248542 81.396 -159.3373
48.598171 81.398 -159.5837
48.950334 81.400 -159.8314
49.305048 81.402 -160.0821
49.662333 81.405 -160.3358
50.022206 81.408 -160.5909
50.384688 81.410 -160.8448
50.749796 81.411 -161.0951
51.117550 81.413 -161.3401
51.487969 81.416 -161.5800
51.861072 81.419 -161.8169
52.236879 81.424 -162.0545
52.615409 81.429 -162.2964
52.996681 81.436 -162.5449
53.380717 81.442 -162.7997
53.767536 81.448 -163.0593
54.157158 81.454 -163.3233
54.549603 81.460 -163.5922
54.944892 81.465 -163.8668
55.343045 81.467 -164.1443
55.744084 81.466 -164.4175
56.148028 81.462 -164.6757
56.554900 81.456 -164.9091
56.964720 81.448 -165.1131
57.377510 81.441 -165.2891
57.793291 81.436 -165.4430
58.212085 81.433 -165.5826
58.633914 81.432 -165.7166
59.058799 81.434 -165.8558
59.486764 81.437 -166.0111
59.917829 81.441 -166.1908
60.352019 81.443 -166.3953
60.789354 81.442 -166.6172
61.229859 81.437 -166.8457
61.673556 81.431 -167.0732
62.120468 81.425 -167.2990
62.570618 81.419 -167.5280
63.024031 81.413 -167.7651
63.480729 81.408 -168.0115
63.940736 81.402 -168.2640
64.404077 81.396 -168.5177
64.870776 81.390 -168.7674
65.340856 81.384 -169.0092
65.814343 81.379 -169.2412
66.291261 81.374 -169.4636
66.771635 81.371 -169.6783
67.255489 81.368 -169.8873
67.742850 81.365 -170.0915
68.233743 81.361 -170.2905
68.728193 81.356 -170.4837
69.226226 81.351 -170.6705
69.727867 81.343 -170.8508
70.233144 81.335 -171.0253
70.742083 81.326 -171.1952
71.254709 81.317 -171.3610
71.771050 81.307 -171.5229
72.291132 81.298 -171.6821
72.814984 81.291 -171.8436
73.342631 81.286 -172.0166
73.874102 81.282 -172.2103
74.409424 81.279 -172.4274
74.948626 81.273 -172.6621
75.491734 81.266 -172.9031
76.038779 81.256 -173.1396
76.589787 81.245 -173.3647
77.144788 81.233 -173.5753
77.703811 81.222 -173.7723
78.266885 81.210 -173.9578
78.834039 81.199 -174.1332
79.405303 81.187 -174.2979
79.980706 81.177 -174.4517
80.560280 81.167 -174.5981
81.144053 81.159 -174.7448
81.732056 81.152 -174.8997
82.324320 81.145 -175.0666
82.920876 81.137 -175.2456
83.521755 81.128 -175.4342
84.126988 81.117 -175.6289
84.736607 81.104 -175.8249
85.350643 81.089 -176.0171
85.969129 81.074 -176.2015
86.592097 81.058 -176.3772
87.219579 81.043 -176.5458
87.851608 81.028 -176.7098
88.488217 81.014 -176.8715
89.129439 81.001 -177.0326
89.775308 80.989 -177.1948
90.425856 80.976 -177.3588
91.081119 80.963 -177.5232
91.741131 80.948 -177.6849
92.405925 80.933 -177.8411
93.075536 80.916 -177.9907
93.750000 80.898 -178.1342
94.429351 80.880 -178.2730
95.113625 80.860 -178.4086
95.802858 80.841 -178.5432
96.497085 80.821 -178.6790
97.196342 80.801 -178.8172
97.900667 80.780 -178.9559
98.610096 80.759 -179.0916
99.324665 80.737 -179.2204
100.044413 80.715 -179.3399
100.769376 80.693 -179.4488
101.499592 80.671 -179.5490
102.235100 80.649 -179.6459
102.975938 80.625 -179.7455
103.722144 80.600 -179.8493
104.473757 80.571 -179.9521
105.230817 80.539 179.9564
105.993363 80.505 179.8881
106.761435 80.471 179.8522
107.535072 80.438 179.8541
108.314315 80.407 179.8960
109.099206 80.378 179.9777
109.889783 80.351 -179.9017
110.686090 80.325 -179.7454
111.488167 80.298 -179.5617
112.296056 80.270 -179.3648
113.109800 80.241 -179.1724
113.929440 80.211 -179.0022
114.755020 80.183 -178.8689
115.586582 80.160 -178.7847
116.424170 80.146 -178.7604
117.267827 80.146 -178.8041
118.117598 80.161 -178.9178
118.973527 80.192 -179.0972
119.835658 80.235 -179.3326
120.704037 80.286 -179.6098
121.578708 80.338 -179.9147
122.459718 80.384 179.7709
123.347111 80.419 179.4710
124.240935 80.441 179.2010
125.141236 80.452 178.9574
126.048061 80.452 178.7289
126.961458 80.444 178.5106
127.881473 80.429 178.3058
128.808154 80.410 178.1210
129.741551 80.391 177.9573
130.681712 80.372 177.8093
131.628686 80.352 177.6719
132.582521 80.331 177.5451
133.543269 80.308 177.4282
134.510979 80.283 177.3170
135.485701 80.256 177.2061
136.467486 80.230 177.0909
137.456386 80.205 176.9692
138.452451 80.182 176.8434
139.455735 80.161 176.7194
140.466288 80.141 176.6036
141.484165 80.122 176.4997
142.509418 80.102 176.4080
143.542100 80.082 176.3271
144.582265 80.061 176.2540
145.629968 80.039 176.1862
146.685262 80.017 176.1238
147.748204 79.995 176.0696
148.818849 79.973 176.0280
149.897251 79.951 176.0016
150.983469 79.929 175.9902
152.077557 79.908 175.9895
153.179574 79.887 175.9941
154.289576 79.867 175.9994
155.407622 79.847 176.0023
156.533770 79.829 176.0009
157.668078 79.811 175.9945
158.810606 79.796 175.9819
159.961413 79.781 175.9611
161.120559 79.767 175.9300
162.288105 79.752 175.8876
163.464112 79.736 175.8345
164.648640 79.719 175.7713
165.841752 79.701 175.6992
167.043510 79.683 175.6210
168.253976 79.665 175.5422
169.473213 79.648 175.4703
170.701286 79.630 175.4112
171.938258 79.613 175.3665
173.184194 79.594 175.3353
174.439158 79.574 175.3148
175.703216 79.552 175.3010
176.976434 79.528 175.2907
178.258878 79.503 175.2842
179.550615 79.478 175.2854
180.851713 79.456 175.2991
182.162239 79.436 175.3260
183.482262 79.421 175.3611
184.811850 79.411 175.3940
186.151073 79.405 175.4116
187.500000 79.401 175.4036
188.858702 79.400 175.3673
190.227250 79.399 175.3113
191.605715 79.396 175.2542
192.994169 79.393 175.2162
194.392685 79.388 175.2084
195.801334 79.382 175.2335
197.220191 79.373 175.2874
198.649330 79.362 175.3579
200.088825 79.348 175.4307
201.538751 79.329 175.4964
202.999184 79.309 175.5465
204.470200 79.287 175.5715
205.951875 79.266 175.5697
207.444287 79.246 175.5481
208.947514 79.227 175.5130
210.461634 79.208 175.4696
211.986726 79.189 175.4240
213.522869 79.170 175.3793
215.070144 79.150 175.3353
216.628631 79.129 175.2926
218.198411 79.107 175.2556
219.779567 79.086 175.2291
221.372180 79.064 175.2153
222.976334 79.041 175.2129
224.592112 79.018 175.2202
226.219600 78.995 175.2352
227.858880 78.972 175.2544
229.510039 78.949 175.2732
231.173164 78.926 175.2887
232.848340 78.903 175.3008
234.535655 78.880 175.3104
236.235197 78.857 175.3182
237.947054 78.835 175.3260
239.671317 78.814 175.3380
241.408074 78.795 175.3573
243.157416 78.777 175.3843
244.919435 78.759 175.4172
246.694223 78.741 175.4548
248.481871 78.722 175.4970
250.282473 78.703 175.5437
252.096123 78.683 175.5945
253.922915 78.662 175.6477
255.762945 78.642 175.7017
257.616309 78.621 175.7554
259.483103 78.600 175.8091
261.363424 78.580 175.8640
263.257372 78.559 175.9214
265.165043 78.538 175.9822
267.086538 78.517 176.0463
269.021957 78.497 176.1129
270.971401 78.476 176.1821
272.934972 78.455 176.2551
274.912771 78.434 176.3326
276.904902 78.414 176.4140
278.911469 78.394 176.4970
280.932577 78.374 176.5791
282.968330 78.354 176.6588
285.018835 78.334 176.7365
287.084199 78.314 176.8138
289.164530 78.294 176.8917
291.259935 78.275 176.9694
293.370525 78.256 177.0454
295.496408 78.237 177.1188
297.637697 78.220 177.1910
299.794503 78.202 177.2656
301.966937 78.185 177.3460
304.155114 78.168 177.4337
306.359147 78.151 177.5277
308.579152 78.135 177.6263
310.815244 78.119 177.7270
313.067539 78.105 177.8282
315.336156 78.091 177.9298
317.621211 78.077 178.0322
319.922826 78.063 178.1351
322.241118 78.047 178.2371
324.576210 78.031 178.3369
326.928223 78.013 178.4354
329.297280 77.996 178.5359
331.683504 77.978 178.6411
334.087019 77.962 178.7515
336.507952 77.946 178.8659
338.946427 77.931 178.9833
341.402572 77.916 179.1032
343.876516 77.901 179.2252
346.368387 77.885 179.3484
348.878315 77.870 179.4730
351.406431 77.854 179.5993
353.952867 77.838 179.7285
356.517756 77.821 179.8613
359.101230 77.805 179.9979
361.703426 77.789 -179.8630
364.324478 77.772 -179.7239
366.964523 77.756 -179.5871
369.623699 77.739 -179.4538
372.302145 77.723 -179.3234
375.000000 77.708 -179.1941
377.717405 77.693 -179.0634
380.454501 77.679 -178.9289
383.211431 77.665 -178.7900
385.988339 77.651 -178.6473
388.785369 77.637 -178.5023
391.602668 77.623 -178.3557
394.440383 77.609 -178.2074
397.298660 77.596 -178.0572
400.177650 77.582 -177.9050
403.077502 77.569 -177.7506
405.998368 77.557 -177.5936
408.940400 77.544 -177.4345
411.903750 77.531 -177.2736
414.888575 77.519 -177.1108
417.895028 77.506 -176.9462
420.923268 77.494 -176.7805
423.973452 77.481 -176.6143
427.045738 77.469 -176.4473
430.140287 77.457 -176.2797
433.257261 77.444 -176.1117
436.396822 77.433 -175.9422
439.559133 77.421 -175.7690
442.744360 77.411 -175.5940
445.952668 77.400 -175.4199
449.184225 77.389 -175.2449
452.439199 77.378 -175.0642
455.717760 77.366 -174.8767
459.020079 77.355 -174.6858
462.346327 77.345 -174.4950
465.696680 77.335 -174.3057
469.071310 77.326 -174.1176
472.470394 77.317 -173.9293
475.894109 77.308 -173.7399
479.342634 77.299 -173.5483
482.816148 77.290 -173.3541
486.314833 77.281 -173.1568
489.838871 77.273 -172.9565
493.388445 77.264 -172.7536
496.963741 77.256 -172.5484
500.564945 77.247 -172.3412
504.192245 77.239 -172.1322
507.845830 77.231 -171.9213
511.525890 77.223 -171.7082
515.232618 77.215 -171.4925
518.966206 77.208 -171.2738
522.726849 77.200 -171.0520
526.514743 77.192 -170.8274
530.330086 77.185 -170.6001
534.173076 77.177 -170.3703
538.043915 77.170 -170.1388
541.942803 77.164 -169.9061
545.869944 77.158 -169.6726
549.825542 77.152 -169.4382
553.809805 77.147 -169.2026
557.822939 77.141 -168.9651
561.865154 77.136 -168.7253
565.936660 77.131 -168.4826
570.037671 77.127 -168.2365
574.168399 77.122 -167.9868
578.329060 77.118 -167.7334
582.519870 77.113 -167.4768
586.741049 77.108 -167.2173
590.992817 77.104 -166.9552
595.275394 77.100 -166.6905
599.589005 77.096 -166.4229
603.933874 77.093 -166.1523
608.310228 77.090 -165.8790
612.718295 77.088 -165.6031
617.158304 77.086 -165.3244
621.630488 77.085 -165.0424
626.135079 77.084 -164.7564
630.672311 77.083 -164.4661
635.242423 77.082 -164.1715
639.845651 77.082 -163.8728
644.482237 77.082 -163.5699
649.152421 77.082 -163.2630
653.856447 77.082 -162.9523
658.594560 77.083 -162.6385
663.367008 77.084 -162.3221
668.174039 77.086 -162.0027
673.015903 77.089 -161.6795
677.892854 77.091 -161.3518
682.805145 77.095 -161.0192
687.753032 77.099 -160.6812
692.736774 77.103 -160.3380
697.756631 77.108 -159.9897
702.812863 77.114 -159.6368
707.905735 77.121 -159.2797
713.035511 77.129 -158.9181
718.202461 77.137 -158.5514
723.406852 77.146 -158.1787
728.648956 77.156 -157.7995
733.929047 77.167 -157.4133
739.247399 77.179 -157.0204
744.604290 77.192 -156.6210
750.000000 77.206 -156.2157
755.434809 77.221 -155.8049
760.909001 77.237 -155.3889
766.422861 77.255 -154.9676
771.976677 77.274 -154.5411
777.570739 77.294 -154.1091
783.205337 77.317 -153.6718
788.880766 77.341 -153.2294
794.597321 77.367 -152.7823
800.355301 77.394 -152.3309
806.155005 77.424 -151.8757
811.996736 77.457 -151.4172
817.880799 77.492 -150.9564
823.807501 77.529 -150.4949
829.777150 77.569 -150.0338
835.790057 77.613 -149.5745
841.846536 77.659 -149.1187
847.946903 77.708 -148.6680
854.091476 77.759 -148.2242
860.280575 77.813 -147.7888
866.514523 77.870 -147.3639
872.793644 77.929 -146.9505
879.118267 77.990 -146.5495
885.488720 78.053 -146.1616
891.905336 78.119 -145.7887
898.368450 78.186 -145.4331
904.878398 78.256 -145.0967
911.435520 78.326 -144.7800
918.040157 78.398 -144.4821
924.692655 78.470 -144.2013
931.393359 78.543 -143.9352
938.142619 78.616 -143.6816
944.940787 78.688 -143.4384
951.788218 78.759 -143.2040
958.685268 78.830 -142.9779
965.632296 78.901 -142.7603
972.629666 78.970 -142.5515
979.677741 79.040 -142.3515
986.776890 79.109 -142.1599
993.927482 79.178 -141.9758
1001.129891 79.248 -141.7985
1008.384491 79.318 -141.6279
1015.691660 79.388 -141.4647
1023.051781 79.459 -141.3103
1030.465236 79.530 -141.1669
1037.932411 79.602 -141.0371
1045.453698 79.675 -140.9241
1053.029486 79.747 -140.8306
1060.660172 79.818 -140.7581
1068.346153 79.887 -140.7053
1076.087829 79.953 -140.6672
1083.885605 80.016 -140.6355
1091.739887 80.076 -140.6013
1099.651084 80.133 -140.5575
1107.619609 80.189 -140.5005
1115.645878 80.244 -140.4300
1123.730308 80.300 -140.3477
1131.873321 80.357 -140.2570
1140.075341 80.415 -140.1621
1148.336797 80.476 -140.0676
1156.658119 80.537 -139.9775
1165.039741 80.600 -139.8952
1173.482099 80.664 -139.8227
1181.985634 80.728 -139.7602
1190.550789 80.791 -139.7069
1199.178011 80.855 -139.6616
1207.867749 80.918 -139.6232
1216.620457 80.981 -139.5910
1225.436590 81.043 -139.5647
1234.316609 81.105 -139.5439
1243.260976 81.166 -139.5279
1252.270157 81.227 -139.5159
1261.344623 81.287 -139.5066
1270.484846 81.347 -139.4993
1279.691303 81.406 -139.4940
1288.964474 81.465 -139.4909
1298.304842 81.523 -139.4900
1307.712894 81.582 -139.4912
1317.189120 81.639 -139.4941
1326.734016 81.697 -139.4982
1336.348077 81.754 -139.5029
1346.031806 81.811 -139.5080
1355.785708 81.868 -139.5137
1365.610290 81.924 -139.5202
1375.506065 81.981 -139.5274
1385.473549 82.037 -139.5356
1395.513261 82.094 -139.5445
1405.625726 82.150 -139.5536
1415.811469 82.207 -139.5625
1426.071023 82.264 -139.5711
1436.404921 82.320 -139.5797
1446.813703 82.377 -139.5892
1457.297912 82.434 -139.5999
1467.858093 82.492 -139.6117
1478.494798 82.549 -139.6242
1489.208581 82.607 -139.6371
1500.000000 82.665 -139.6503
1510.869618 82.723 -139.6639
1521.818002 82.782 -139.6783
1532.845723 82.841 -139.6942
1543.953355 82.901 -139.7122
1555.141477 82.961 -139.7323
1566.410674 83.021 -139.7543
1577.761531 83.082 -139.7781
1589.194642 83.144 -139.8040
1600.710601 83.206 -139.8324
1612.310010 83.268 -139.8637
1623.993473 83.331 -139.8983
1635.761599 83.395 -139.9363
1647.615002 83.459 -139.9777
1659.554299 83.524 -140.0225
1671.580114 83.589 -140.0706
1683.693072 83.655 -140.1226
1695.893807 83.722 -140.1790
1708.182952 83.789 -140.2404
1720.561150 83.856 -140.3073
1733.029045 83.925 -140.3798
1745.587288 83.994 -140.4578
1758.236533 84.063 -140.5416
1770.977440 84.134 -140.6316
1783.810673 84.204 -140.7280
1796.736900 84.276 -140.8313
1809.756796 84.348 -140.9417
1822.871040 84.420 -141.0595
1836.080315 84.493 -141.1849
1849.385310 84.567 -141.3182
1862.786718 84.640 -141.4596
1876.285239 84.715 -141.6095
1889.881575 84.790 -141.7686
1903.576436 84.865 -141.9375
1917.370535 84.941 -142.1165
1931.264593 85.017 -142.3060
1945.259332 85.094 -142.5061
1959.355483 85.171 -142.7171
1973.553781 85.248 -142.9398
1987.854965 85.325 -143.1749
2002.259781 85.402 -143.4230
2016.768981 85.479 -143.6844
2031.383320 85.556 -143.9594
2046.103561 85.632 -144.2479
2060.930471 85.708 -144.5499
2075.864823 85.784 -144.8652
2090.907395 85.859 -145.1937
2106.058972 85.934 -145.5357
2121.320344 86.008 -145.8913
2136.692305 86.081 -146.2606
2152.175658 86.153 -146.6436
2167.771210 86.224 -147.0402
2183.479774 86.294 -147.4503
2199.302169 86.362 -147.8740
2215.239219 86.429 -148.3111
2231.291755 86.495 -148.7616
2247.460615 86.560 -149.2255
2263.746641 86.623 -149.7025
2280.150683 86.684 -150.1925
2296.673595 86.743 -150.6950
2313.316238 86.800 -151.2094
2330.079481 86.854 -151.7355
2346.964198 86.907 -152.2727
2363.971268 86.957 -152.8204
2381.101578 87.005 -153.3780
2398.356022 87.050 -153.9444
2415.735498 87.092 -154.5188
2433.240913 87.131 -155.1001
2450.873180 87.168 -155.6875
2468.633217 87.201 -156.2797
2486.521951 87.231 -156.8757
2504.540314 87.258 -157.4740
2522.689246 87.282 -158.0731
2540.969692 87.303 -158.6712
2559.382606 87.320 -159.2664
2577.928947 87.334 -159.8570
2596.609683 87.345 -160.4411
2615.425787 87.353 -161.0168
2634.378241 87.358 -161.5824
2653.468031 87.361 -162.1364
2672.696154 87.362 -162.6775
2692.063613 87.361 -163.2051
2711.571415 87.359 -163.7196
2731.220579 87.357 -164.2226
2751.012130 87.354 -164.7173
2770.947098 87.352 -165.2075
2791.026522 87.350 -165.6979
2811.251451 87.347 -166.1925
2831.622938 87.344 -166.6944
2852.142045 87.339 -167.2049
2872.809842 87.331 -167.7234
2893.627406 87.321 -168.2479
2914.595823 87.307 -168.7749
2935.716186 87.290 -169.3002
2956.989596 87.268 -169.8193
2978.417161 87.243 -170.3278
3000.000000 87.214 -170.8220
3021.739237 87.182 -171.2988
3043.636005 87.147 -171.7563
3065.691446 87.110 -172.1932
3087.906710 87.070 -172.6088
3110.282955 87.029 -173.0028
3132.821347 86.987 -173.3750
3155.523062 86.943 -173.7253
3178.389283 86.899 -174.0538
3201.421202 86.854 -174.3607
3224.620020 86.809 -174.6462
3247.986946 86.764 -174.9110
3271.523198 86.719 -175.1557
3295.230004 86.675 -175.3808
3319.108599 86.632 -175.5870
3343.160228 86.589 -175.7751
3367.386145 86.548 -175.9459
3391.787613 86.508 -176.1006
3416.365904 86.469 -176.2406
3441.122300 86.432 -176.3671
3466.058091 86.396 -176.4814
3491.174576 86.362 -176.5846
3516.473066 86.329 -176.6776
3541.954880 86.299 -176.7614
3567.621345 86.270 -176.8367
3593.473800 86.242 -176.9043
3619.513592 86.217 -176.9650
3645.742080 86.193 -177.0196
3672.160630 86.170 -177.0685
3698.770620 86.150 -177.1123
3725.573436 86.132 -177.1517
3752.570477 86.115 -177.1875
3779.763150 86.100 -177.2205
3807.152872 86.088 -177.2519
3834.741071 86.077 -177.2828
3862.529185 86.068 -177.3141
3890.518664 86.061 -177.3465
3918.710966 86.056 -177.3806
3947.107561 86.054 -177.4172
3975.709929 86.053 -177.4572
4004.519563 86.054 -177.5019
4033.537962 86.057 -177.5524
4062.766641 86.061 -177.6101
4092.207123 86.068 -177.6764
4121.860942 86.077 -177.7528
4151.729646 86.088 -177.8404
4181.814790 86.100 -177.9405
4212.117944 86.114 -178.0544
4242.640687 86.130 -178.1833
4273.384610 86.147 -178.3286
4304.351317 86.165 -178.4912
4335.542421 86.184 -178.6723
4366.959549 86.203 -178.8728
4398.604338 86.223 -179.0935
4430.478438 86.244 -179.3352
4462.583511 86.264 -179.5984
4494.921231 86.284 -179.8837
4527.493283 86.304 179.8087
4560.301365 86.322 179.4785
4593.347189 86.340 179.1257
4626.632476 86.357 178.7503
4660.158962 86.372 178.3521
4693.928395 86.386 177.9310
4727.942535 86.397 177.4867
4762.203156 86.406 177.0189
4796.712043 86.413 176.5279
4831.470996 86.416 176.0142
4866.481826 86.417 175.4786
4901.746360 86.413 174.9229
4937.266434 86.405 174.3491
4973.043902 86.392 173.7598
5009.080628 86.374 173.1577
5045.378492 86.351 172.5460
5081.939384 86.322 171.9279
5118.765212 86.288 171.3072
5155.857894 86.248 170.6880
5193.219366 86.201 170.0751
5230.851574 86.149 169.4735
5268.756481 86.092 168.8878
5306.936062 86.028 168.3221
5345.392309 85.961 167.7800
5384.127225 85.888 167.2640
5423.142830 85.812 166.7767
5462.441159 85.733 166.3205
5502.024259 85.650 165.8972
5541.894195 85.566 165.5079
5582.053045 85.479 165.1532
5622.502902 85.392 164.8327
5663.245876 85.304 164.5460
5704.284090 85.215 164.2927
5745.619684 85.127 164.0720
5787.254813 85.040 163.8831
5829.191647 84.953 163.7249
5871.432373 84.867 163.5969
5913.979192 84.782 163.4993
5956.834323 84.699 163.4330
6000.000000 84.617 163.3997
6043.478473 84.538 163.4005
6087.272010 84.463 163.4351
6131.382892 84.391 163.5008
6175.813420 84.325 163.5913
6220.565910 84.265 163.6981
6265.642695 84.209 163.8139
6311.046124 84.158 163.9366
6356.778566 84.111 164.0698
6402.842404 84.068 164.2194
6449.240040 84.031 164.3888
6495.973891 83.999 164.5765
6543.046396 83.976 164.7766
6590.460007 83.961 164.9806
6638.217197 83.954 165.1792
6686.320456 83.957 165.3645
6734.772290 83.967 165.5309
6783.575226 83.986 165.6759
6832.731809 84.011 165.8005
6882.244600 84.044 165.9079
6932.116181 84.085 166.0027
6982.349153 84.137 166.0881
7032.946133 84.201 166.1635
7083.909760 84.282 166.2213
7135.242690 84.381 166.2450
7186.947600 84.504 166.2081
7239.027185 84.652 166.0746
7291.484160 84.826 165.8008
7344.321260 85.026 165.3373
7397.541239 85.250 164.6325
7451.146872 85.492 163.6343
7505.140954 85.747 162.2941
7559.526299 86.005 160.5691
7614.305743 86.255 158.4261
7669.482141 86.484 155.8457
7725.058371 86.677 152.8271
7781.037328 86.818 149.3934
7837.421932 86.891 145.5956
7894.215122 86.879 141.5148
7951.419859 86.772 137.2604
8009.039125 86.562 132.9633
8067.075924 86.246 128.7650
8125.533282 85.828 124.8037
8184.414245 85.317 121.2012
8243.721885 84.729 118.0524
8303.459292 84.078 115.4203
8363.629581 83.382 113.3358
8424.235888 82.659 111.8005
8485.281374 81.924 110.7924
8546.769221 81.190 110.2722
8608.702634 80.468 110.1902
8671.084842 79.765 110.4923
8733.919097 79.087 111.1251
8797.208675 78.435 112.0395
8860.956876 77.812 113.1926
8925.167022 77.216 114.5486
8989.842461 76.648 116.0781
9054.986566 76.105 117.7567
9120.602731 75.588 119.5652
9186.694378 75.093 121.4880
9253.264952 74.621 123.5129
9320.317925 74.170 125.6304
9387.856790 73.738 127.8331
9455.885071 73.324 130.1150
9524.406312 72.926 132.4716
9593.424086 72.544 134.8990
9662.941992 72.177 137.3943
9732.963653 71.824 139.9552
9803.492719 71.485 142.5803
9874.532869 71.158 145.2687
9946.087805 70.844 148.0209
10018.161257 70.541 150.8378
10090.756983 70.251 153.7213
10163.878768 69.971 156.6735
10237.530423 69.703 159.6975
10311.715789 69.445 162.7975
10386.438732 69.199 165.9794
10461.703149 68.963 169.2509
10537.512962 68.737 172.6228
10613.872125 68.524 176.1100
10690.784618 68.323 179.7318
10768.254450 68.136 -176.4867
10846.285661 67.966 -172.5147
10924.882318 67.817 -168.3156
11004.048518 67.695 -163.8479
11083.788390 67.612 -159.0682
11164.106090 67.579 -153.9385
11245.005805 67.615 -148.4408
11326.491752 67.740 -142.6010
11408.568180 67.974 -136.5156
11491.239368 68.333 -130.3699
11574.509626 68.818 -124.4303
11658.383294 69.418 -118.9986
11742.864745 70.108 -114.3409
11827.958384 70.852 -110.6260
11913.668646 71.612 -107.8980
12000.000000 72.356 -106.0862
12086.956947 73.058 -105.0381
12174.544019 73.705 -104.5572
12262.765784 74.292 -104.4370
12351.626840 74.824 -104.4875
12441.131819 75.316 -104.5536
12531.285389 75.785 -104.5250
12622.092249 76.252 -104.3404
12713.557132 76.739 -103.9868
12805.684808 77.266 -103.4957
12898.480079 77.853 -102.9382
12991.947783 78.514 -102.4200
13086.092792 79.257 -102.0758
13180.920015 80.084 -102.0632
13276.434395 80.986 -102.5543
13372.640911 81.948 -103.7248
13469.544580 82.943 -105.7377
13567.150452 83.938 -108.7259
13665.463617 84.892 -112.7743
13764.489200 85.762 -117.9027
13864.232362 86.503 -124.0511
13964.698305 87.072 -131.0674
14065.892266 87.436 -138.7030
14167.819519 87.572 -146.6256
14270.485380 87.477 -154.4597
14373.895200 87.167 -161.8439
14478.054370 86.674 -168.4837
14582.968320 86.042 -174.1821
14688.642520 85.320 -178.8449
14795.082478 84.556 177.5261
14902.293745 83.797 174.8493
15010.281908 83.082 172.9834
15119.052599 82.438 171.7477
15228.611486 81.886 170.9427
15338.964283 81.431 170.3673
15450.116741 81.068 169.8349
15562.074656 80.788 169.1850
15674.843864 80.569 168.2910
15788.430244 80.392 167.0643
15902.839718 80.230 165.4571
16018.078250 80.060 163.4622
16134.151848 79.857 161.1120
16251.066563 79.602 158.4749
16368.828491 79.277 155.6483
16487.443769 78.872 152.7475
16606.918584 78.381 149.8926
16727.259161 77.806 147.1943
16848.471777 77.151 144.7412
16970.562748 76.425 142.5946
17093.538442 75.634 140.7975
17217.405268 74.783 139.4053
17342.169684 73.869 138.5432
17467.838194 72.890 138.4765
17594.417350 71.850 139.6174
17721.913751 70.784 142.3217
17850.334044 69.757 146.4766
17979.684923 68.837 151.4050
18109.973131 68.057 156.3429
18241.205462 67.413 160.8790
18373.388756 66.880 164.9666
18506.529905 66.430 168.7276
18640.635849 66.045 172.2998
18775.713581 65.715 175.7742
18911.770141 65.438 179.1858
19048.812624 65.211 -177.4772
19186.848172 65.034 -174.2605
19325.883983 64.904 -171.2337
19465.927305 64.814 -168.4835
19606.985439 64.758 -166.1064
19749.065738 64.726 -164.2022
19892.175609 64.711 -162.8654
20036.322514 64.705 -162.1739
