* Measurement data measured by REW V5.31.3
* Source: Headset (CX31993 HIFI AUDIO), MICROPHONE (Master Volume), R, volume: 0.400
* Format: 256k Log Swept Sine, 1 sweep at -11.9 dBFS with no timing reference
* Dated: 06 25, 25 11:57:33 AM
* REW Settings:
*  C-weighting compensation: Off
*  Target level: 75.0 dB
* Note: ; 
* Measurement: Xiaomi Buds 6 Play treble R
* Smoothing: 1/12 octave
* Frequency Step: 96 ppo
* Start Frequency: 0.36621094 Hz
*
* Freq(Hz) SPL(dB) Phase(degrees)
0.366211 28.291 -61.2845
0.368865 28.320 -61.1810
0.371538 28.363 -61.0281
0.374230 28.416 -60.8395
0.376942 28.475 -60.6273
0.379673 28.538 -60.4001
0.382424 28.604 -60.1635
0.385196 28.672 -59.9212
0.387987 28.740 -59.6752
0.390798 28.810 -59.4266
0.393630 28.880 -59.1759
0.396483 28.951 -58.9237
0.399356 29.023 -58.6700
0.402250 29.095 -58.4150
0.405165 29.167 -58.1588
0.408101 29.240 -57.9013
0.411058 29.314 -57.6426
0.414037 29.388 -57.3828
0.417037 29.462 -57.1219
0.420059 29.537 -56.8599
0.423103 29.613 -56.5968
0.426169 29.689 -56.3327
0.429257 29.766 -56.0676
0.432368 29.844 -55.8015
0.435501 29.922 -55.5344
0.438656 30.000 -55.2663
0.441835 30.079 -54.9974
0.445037 30.159 -54.7275
0.448262 30.239 -54.4568
0.451510 30.320 -54.1851
0.454782 30.401 -53.9127
0.458077 30.483 -53.6393
0.461397 30.566 -53.3652
0.464740 30.649 -53.0902
0.468108 30.733 -52.8145
0.471500 30.817 -52.5380
0.474917 30.902 -52.2606
0.478358 30.988 -51.9826
0.481825 31.074 -51.7037
0.485316 31.161 -51.4241
0.488833 31.248 -51.1437
0.492375 31.336 -50.8626
0.495943 31.425 -50.5807
0.499537 31.514 -50.2980
0.503157 31.605 -50.0146
0.506803 31.695 -49.7305
0.510475 31.787 -49.4456
0.514175 31.879 -49.1599
0.517900 31.971 -48.8734
0.521653 32.065 -48.5861
0.525434 32.159 -48.2981
0.529241 32.253 -48.0092
0.533076 32.349 -47.7195
0.536939 32.445 -47.4289
0.540830 32.542 -47.1375
0.544749 32.639 -46.8452
0.548696 32.738 -46.5521
0.552673 32.836 -46.2580
0.556677 32.936 -45.9630
0.560711 33.036 -45.6670
0.564774 33.138 -45.3700
0.568867 33.239 -45.0720
0.572989 33.342 -44.7730
0.577141 33.445 -44.4729
0.581324 33.549 -44.1717
0.585536 33.654 -43.8694
0.589779 33.760 -43.5659
0.594053 33.866 -43.2612
0.598358 33.973 -42.9553
0.602694 34.081 -42.6482
0.607061 34.190 -42.3397
0.611460 34.299 -42.0299
0.615891 34.410 -41.7188
0.620354 34.521 -41.4062
0.624849 34.632 -41.0922
0.629377 34.745 -40.7767
0.633938 34.859 -40.4596
0.638532 34.973 -40.1410
0.643159 35.088 -39.8207
0.647819 35.204 -39.4988
0.652514 35.321 -39.1752
0.657242 35.439 -38.8498
0.662005 35.557 -38.5226
0.666802 35.677 -38.1936
0.671634 35.797 -37.8627
0.676501 35.918 -37.5299
0.681403 36.040 -37.1951
0.686341 36.163 -36.8582
0.691314 36.286 -36.5193
0.696324 36.411 -36.1783
0.701370 36.536 -35.8353
0.706452 36.662 -35.4901
0.711571 36.788 -35.1430
0.716728 36.914 -34.7940
0.721921 37.040 -34.4435
0.727153 37.164 -34.0920
0.732422 37.287 -33.7399
0.737729 37.408 -33.3881
0.743075 37.527 -33.0373
0.748460 37.645 -32.6880
0.753883 37.762 -32.3406
0.759346 37.878 -31.9955
0.764849 37.994 -31.6528
0.770391 38.110 -31.3124
0.775974 38.227 -30.9744
0.781597 38.343 -30.6387
0.787261 38.459 -30.3053
0.792966 38.576 -29.9742
0.798712 38.692 -29.6453
0.804500 38.809 -29.3185
0.810329 38.926 -28.9938
0.816201 39.043 -28.6711
0.822116 39.160 -28.3503
0.828073 39.278 -28.0314
0.834074 39.395 -27.7144
0.840118 39.513 -27.3991
0.846206 39.631 -27.0855
0.852338 39.749 -26.7736
0.858514 39.868 -26.4633
0.864735 39.986 -26.1545
0.871001 40.105 -25.8472
0.877313 40.224 -25.5413
0.883670 40.344 -25.2368
0.890074 40.463 -24.9336
0.896524 40.583 -24.6317
0.903020 40.704 -24.3311
0.909564 40.824 -24.0316
0.916155 40.945 -23.7333
0.922794 41.066 -23.4360
0.929481 41.188 -23.1398
0.936216 41.310 -22.8446
0.943000 41.432 -22.5504
0.949834 41.555 -22.2571
0.956717 41.678 -21.9646
0.963649 41.801 -21.6730
0.970632 41.926 -21.3822
0.977666 42.050 -21.0921
0.984750 42.175 -20.8028
0.991886 42.301 -20.5142
0.999074 42.427 -20.2262
1.006314 42.554 -19.9389
1.013606 42.681 -19.6522
1.020951 42.809 -19.3660
1.028349 42.938 -19.0804
1.035801 43.067 -18.7953
1.043307 43.197 -18.5106
1.050867 43.328 -18.2265
1.058482 43.460 -17.9427
1.066152 43.592 -17.6594
1.073878 43.726 -17.3765
1.081660 43.860 -17.0938
1.089498 43.994 -16.8115
1.097393 44.130 -16.5294
1.105345 44.266 -16.2474
1.113355 44.403 -15.9656
1.121423 44.540 -15.6840
1.129549 44.678 -15.4026
1.137734 44.816 -15.1216
1.145979 44.954 -14.8411
1.154283 45.093 -14.5613
1.162647 45.232 -14.2823
1.171072 45.372 -14.0044
1.179558 45.512 -13.7277
1.188106 45.652 -13.4525
1.196715 45.793 -13.1789
1.205387 45.934 -12.9072
1.214122 46.075 -12.6374
1.222920 46.217 -12.3699
1.231782 46.359 -12.1049
1.240708 46.502 -11.8424
1.249699 46.645 -11.5828
1.258754 46.789 -11.3263
1.267876 46.932 -11.0729
1.277063 47.077 -10.8230
1.286318 47.222 -10.5766
1.295639 47.367 -10.3340
1.305027 47.513 -10.0955
1.314484 47.659 -9.8610
1.324009 47.806 -9.6310
1.333604 47.953 -9.4054
1.343268 48.101 -9.1845
1.353002 48.249 -8.9685
1.362806 48.398 -8.7575
1.372681 48.547 -8.5517
1.382628 48.697 -8.3512
1.392647 48.848 -8.1561
1.402739 48.999 -7.9666
1.412904 49.150 -7.7826
1.423142 49.303 -7.6042
1.433455 49.456 -7.4311
1.443843 49.609 -7.2631
1.454305 49.763 -7.0996
1.464844 49.918 -6.9397
1.475459 50.073 -6.7828
1.486150 50.229 -6.6278
1.496920 50.385 -6.4743
1.507767 50.542 -6.3220
1.518693 50.699 -6.1709
1.529698 50.857 -6.0211
1.540783 51.015 -5.8729
1.551948 51.173 -5.7268
1.563194 51.332 -5.5832
1.574521 51.491 -5.4424
1.585931 51.651 -5.3049
1.597423 51.811 -5.1711
1.608999 51.972 -5.0415
1.620658 52.132 -4.9165
1.632402 52.293 -4.7964
1.644232 52.455 -4.6816
1.656146 52.617 -4.5726
1.668147 52.779 -4.4697
1.680235 52.942 -4.3733
1.692411 53.104 -4.2837
1.704675 53.268 -4.2012
1.717028 53.431 -4.1262
1.729470 53.595 -4.0590
1.742003 53.759 -3.9997
1.754626 53.924 -3.9486
1.767341 54.088 -3.9058
1.780147 54.254 -3.8713
1.793047 54.419 -3.8448
1.806040 54.584 -3.8258
1.819128 54.750 -3.8135
1.832310 54.916 -3.8068
1.845587 55.083 -3.8042
1.858961 55.249 -3.8047
1.872432 55.416 -3.8075
1.886001 55.582 -3.8121
1.899667 55.749 -3.8188
1.913433 55.916 -3.8277
1.927299 56.084 -3.8394
1.941265 56.251 -3.8544
1.955332 56.418 -3.8734
1.969501 56.586 -3.8969
1.983773 56.753 -3.9256
1.998148 56.921 -3.9602
2.012627 57.088 -4.0011
2.027212 57.256 -4.0490
2.041902 57.424 -4.1044
2.056698 57.591 -4.1678
2.071602 57.759 -4.2397
2.086614 57.927 -4.3206
2.101734 58.095 -4.4109
2.116964 58.262 -4.5109
2.132304 58.430 -4.6207
2.147756 58.597 -4.7405
2.163320 58.765 -4.8698
2.178996 58.932 -5.0082
2.194786 59.099 -5.1546
2.210690 59.266 -5.3077
2.226710 59.433 -5.4663
2.242845 59.599 -5.6294
2.259098 59.765 -5.7965
2.275468 59.931 -5.9674
2.291957 60.097 -6.1422
2.308566 60.262 -6.3211
2.325295 60.427 -6.5045
2.342145 60.592 -6.6929
2.359117 60.756 -6.8868
2.376212 60.920 -7.0866
2.393431 61.083 -7.2929
2.410775 61.246 -7.5061
2.428244 61.409 -7.7267
2.445840 61.572 -7.9552
2.463564 61.734 -8.1920
2.481416 61.895 -8.4374
2.499397 62.057 -8.6917
2.517509 62.217 -8.9549
2.535752 62.378 -9.2270
2.554127 62.538 -9.5074
2.572635 62.697 -9.7957
2.591277 62.856 -10.0908
2.610055 63.014 -10.3922
2.628968 63.171 -10.6991
2.648019 63.328 -11.0112
2.667208 63.484 -11.3282
2.686535 63.639 -11.6502
2.706003 63.793 -11.9770
2.725612 63.947 -12.3088
2.745363 64.100 -12.6457
2.765257 64.252 -12.9879
2.785295 64.403 -13.3356
2.805478 64.554 -13.6890
2.825808 64.704 -14.0483
2.846285 64.853 -14.4138
2.866910 65.002 -14.7857
2.887685 65.150 -15.1641
2.908611 65.297 -15.5493
2.929688 65.443 -15.9411
2.950917 65.588 -16.3396
2.972301 65.732 -16.7445
2.993839 65.876 -17.1554
3.015534 66.018 -17.5720
3.037386 66.159 -17.9937
3.059396 66.298 -18.4203
3.081565 66.437 -18.8512
3.103896 66.575 -19.2861
3.126388 66.712 -19.7247
3.149043 66.847 -20.1669
3.171862 66.982 -20.6123
3.194847 67.116 -21.0609
3.217998 67.248 -21.5126
3.241317 67.380 -21.9678
3.264805 67.511 -22.4264
3.288463 67.640 -22.8891
3.312293 67.769 -23.3561
3.336295 67.896 -23.8279
3.360471 68.021 -24.3045
3.384822 68.146 -24.7857
3.409350 68.269 -25.2711
3.434056 68.391 -25.7600
3.458940 68.511 -26.2517
3.484005 68.631 -26.7454
3.509252 68.749 -27.2406
3.534681 68.865 -27.7366
3.560295 68.981 -28.2328
3.586094 69.096 -28.7290
3.612081 69.209 -29.2251
3.638255 69.321 -29.7213
3.664620 69.432 -30.2181
3.691175 69.542 -30.7162
3.717923 69.651 -31.2161
3.744864 69.758 -31.7180
3.772001 69.863 -32.2217
3.799335 69.967 -32.7267
3.826866 70.070 -33.2323
3.854597 70.172 -33.7376
3.882529 70.272 -34.2417
3.910664 70.371 -34.7439
3.939002 70.470 -35.2435
3.967546 70.567 -35.7399
3.996296 70.663 -36.2332
4.025255 70.758 -36.7235
4.054423 70.852 -37.2113
4.083804 70.945 -37.6972
4.113396 71.037 -38.1815
4.143204 71.127 -38.6644
4.173227 71.216 -39.1455
4.203468 71.305 -39.6243
4.233928 71.392 -40.1003
4.264609 71.478 -40.5728
4.295512 71.564 -41.0411
4.326639 71.649 -41.5048
4.357992 71.734 -41.9633
4.389572 71.818 -42.4169
4.421380 71.901 -42.8655
4.453419 71.984 -43.3096
4.485691 72.066 -43.7495
4.518196 72.147 -44.1855
4.550936 72.228 -44.6177
4.583914 72.308 -45.0461
4.617131 72.388 -45.4707
4.650589 72.467 -45.8914
4.684289 72.547 -46.3079
4.718233 72.627 -46.7201
4.752424 72.706 -47.1279
4.786862 72.786 -47.5312
4.821549 72.865 -47.9302
4.856488 72.945 -48.3251
4.891680 73.024 -48.7165
4.927127 73.104 -49.1049
4.962831 73.184 -49.4908
4.998794 73.264 -49.8749
5.035017 73.344 -50.2576
5.071503 73.425 -50.6392
5.108253 73.506 -51.0199
5.145270 73.587 -51.3997
5.182555 73.669 -51.7787
5.220110 73.752 -52.1569
5.257937 73.834 -52.5348
5.296038 73.918 -52.9131
5.334415 74.001 -53.2925
5.373071 74.085 -53.6738
5.412006 74.169 -54.0579
5.451224 74.254 -54.4452
5.490725 74.339 -54.8361
5.530514 74.424 -55.2307
5.570590 74.510 -55.6290
5.610957 74.595 -56.0310
5.651616 74.682 -56.4370
5.692570 74.768 -56.8474
5.733821 74.854 -57.2626
5.775370 74.940 -57.6831
5.817221 75.026 -58.1093
5.859375 75.112 -58.5417
5.901834 75.197 -58.9802
5.944602 75.283 -59.4248
5.987679 75.368 -59.8752
6.031068 75.452 -60.3313
6.074771 75.536 -60.7927
6.118792 75.620 -61.2591
6.163131 75.702 -61.7306
6.207792 75.784 -62.2071
6.252776 75.865 -62.6886
6.298086 75.945 -63.1751
6.343725 76.025 -63.6662
6.389694 76.103 -64.1613
6.435996 76.180 -64.6597
6.482634 76.256 -65.1604
6.529610 76.331 -65.6630
6.576926 76.405 -66.1668
6.624585 76.478 -66.6718
6.672590 76.550 -67.1777
6.720942 76.620 -67.6842
6.769645 76.690 -68.1906
6.818700 76.758 -68.6961
6.868111 76.825 -69.1996
6.917881 76.891 -69.7005
6.968010 76.956 -70.1982
7.018504 77.021 -70.6927
7.069362 77.084 -71.1836
7.120590 77.146 -71.6707
7.172189 77.208 -72.1537
7.224161 77.269 -72.6320
7.276511 77.330 -73.1051
7.329239 77.391 -73.5728
7.382350 77.451 -74.0348
7.435845 77.510 -74.4913
7.489729 77.570 -74.9426
7.544002 77.630 -75.3887
7.598669 77.689 -75.8300
7.653732 77.749 -76.2666
7.709194 77.809 -76.6986
7.765058 77.870 -77.1263
7.821327 77.931 -77.5501
7.878004 77.992 -77.9706
7.935091 78.054 -78.3887
7.992592 78.116 -78.8049
8.050510 78.179 -79.2198
8.108847 78.243 -79.6340
8.167607 78.307 -80.0478
8.226793 78.371 -80.4619
8.286408 78.437 -80.8768
8.346454 78.502 -81.2934
8.406936 78.568 -81.7121
8.467856 78.634 -82.1334
8.529218 78.701 -82.5576
8.591024 78.768 -82.9848
8.653278 78.834 -83.4152
8.715983 78.901 -83.8490
8.779143 78.967 -84.2863
8.842760 79.034 -84.7271
8.906839 79.100 -85.1713
8.971381 79.165 -85.6186
9.036392 79.230 -86.0686
9.101873 79.295 -86.5208
9.167829 79.358 -86.9748
9.234263 79.421 -87.4304
9.301178 79.484 -87.8869
9.368578 79.545 -88.3438
9.436467 79.606 -88.8004
9.504847 79.666 -89.2561
9.573723 79.725 -89.7103
9.643099 79.784 -90.1626
9.712976 79.841 -90.6126
9.783361 79.899 -91.0598
9.854255 79.955 -91.5037
9.925663 80.011 -91.9441
9.997588 80.067 -92.3807
10.070035 80.122 -92.8135
10.143007 80.177 -93.2424
10.216507 80.232 -93.6676
10.290540 80.286 -94.0891
10.365109 80.341 -94.5071
10.440219 80.395 -94.9219
10.515873 80.450 -95.3340
10.592076 80.505 -95.7437
10.668830 80.559 -96.1516
10.746141 80.614 -96.5580
10.824012 80.669 -96.9635
10.902447 80.724 -97.3686
10.981451 80.780 -97.7738
11.061027 80.835 -98.1795
11.141180 80.890 -98.5861
11.221913 80.945 -98.9939
11.303232 81.000 -99.4033
11.385140 81.054 -99.8144
11.467641 81.108 -100.2273
11.550741 81.162 -100.6422
11.634442 81.216 -101.0590
11.718750 81.269 -101.4775
11.803669 81.321 -101.8978
11.889203 81.373 -102.3195
11.975357 81.424 -102.7425
12.062136 81.474 -103.1663
12.149543 81.523 -103.5906
12.237583 81.571 -104.0152
12.326262 81.619 -104.4395
12.415583 81.666 -104.8633
12.505552 81.712 -105.2862
12.596172 81.757 -105.7077
12.687449 81.801 -106.1276
12.779387 81.845 -106.5455
12.871992 81.888 -106.9611
12.965268 81.930 -107.3741
13.059220 81.971 -107.7843
13.153852 82.012 -108.1915
13.249170 82.053 -108.5955
13.345179 82.092 -108.9962
13.441884 82.132 -109.3935
13.539289 82.171 -109.7874
13.637401 82.210 -110.1778
13.736223 82.248 -110.5650
13.835761 82.287 -110.9489
13.936021 82.325 -111.3298
14.037007 82.363 -111.7078
14.138725 82.401 -112.0833
14.241180 82.440 -112.4564
14.344377 82.478 -112.8277
14.448323 82.517 -113.1975
14.553021 82.556 -113.5662
14.658478 82.595 -113.9342
14.764700 82.635 -114.3022
14.871691 82.675 -114.6705
14.979457 82.715 -115.0397
15.088005 82.755 -115.4104
15.197339 82.796 -115.7831
15.307465 82.837 -116.1583
15.418389 82.878 -116.5364
15.530117 82.919 -116.9178
15.642655 82.960 -117.3029
15.756008 83.001 -117.6919
15.870182 83.042 -118.0848
15.985184 83.082 -118.4817
16.101019 83.122 -118.8823
16.217694 83.161 -119.2863
16.335214 83.200 -119.6929
16.453586 83.238 -120.1015
16.572815 83.275 -120.5109
16.692909 83.311 -120.9202
16.813872 83.346 -121.3281
16.935713 83.380 -121.7333
17.058436 83.413 -122.1345
17.182048 83.445 -122.5307
17.306556 83.477 -122.9209
17.431967 83.509 -123.3045
17.558286 83.540 -123.6811
17.685521 83.572 -124.0510
17.813677 83.603 -124.4146
17.942762 83.636 -124.7729
18.072783 83.669 -125.1273
18.203746 83.703 -125.4794
18.335658 83.737 -125.8308
18.468526 83.772 -126.1832
18.602356 83.808 -126.5378
18.737156 83.844 -126.8959
18.872934 83.879 -127.2577
19.009695 83.914 -127.6230
19.147447 83.949 -127.9911
19.286197 83.982 -128.3603
19.425953 84.014 -128.7287
19.566721 84.044 -129.0939
19.708510 84.074 -129.4535
19.851326 84.102 -129.8054
19.995177 84.130 -130.1479
20.140070 84.158 -130.4803
20.286013 84.185 -130.8026
20.433014 84.214 -131.1159
20.581080 84.243 -131.4224
20.730219 84.274 -131.7252
20.880439 84.306 -132.0278
21.031747 84.340 -132.3338
21.184152 84.375 -132.6467
21.337661 84.410 -132.9691
21.492282 84.445 -133.3025
21.648024 84.479 -133.6473
21.804895 84.512 -134.0022
21.962902 84.543 -134.3648
22.122054 84.571 -134.7316
22.282360 84.597 -135.0984
22.443827 84.620 -135.4608
22.606464 84.641 -135.8150
22.770280 84.661 -136.1576
22.935283 84.679 -136.4865
23.101481 84.697 -136.8011
23.268884 84.715 -137.1021
23.437500 84.734 -137.3915
23.607338 84.754 -137.6724
23.778406 84.776 -137.9485
23.950714 84.800 -138.2235
24.124271 84.825 -138.5012
24.299086 84.851 -138.7844
24.475167 84.878 -139.0754
24.652524 84.906 -139.3755
24.831166 84.933 -139.6851
25.011103 84.961 -140.0039
25.192344 84.987 -140.3312
25.374898 85.013 -140.6656
25.558775 85.037 -141.0058
25.743984 85.060 -141.3502
25.930536 85.083 -141.6973
26.118439 85.103 -142.0455
26.307704 85.123 -142.3932
26.498341 85.142 -142.7391
26.690359 85.160 -143.0819
26.883768 85.176 -143.4208
27.078579 85.193 -143.7550
27.274801 85.209 -144.0843
27.472446 85.225 -144.4090
27.671522 85.241 -144.7295
27.872042 85.258 -145.0467
28.074014 85.274 -145.3614
28.277450 85.291 -145.6744
28.482360 85.309 -145.9864
28.688755 85.326 -146.2979
28.896645 85.344 -146.6089
29.106042 85.362 -146.9196
29.316957 85.380 -147.2298
29.529400 85.398 -147.5392
29.743382 85.417 -147.8479
29.958915 85.436 -148.1557
30.176009 85.454 -148.4626
30.394677 85.474 -148.7687
30.614929 85.493 -149.0743
30.836778 85.513 -149.3796
31.060234 85.533 -149.6851
31.285309 85.554 -149.9914
31.512015 85.575 -150.2991
31.740364 85.596 -150.6085
31.970368 85.618 -150.9201
32.202039 85.639 -151.2336
32.435388 85.660 -151.5485
32.670428 85.680 -151.8639
32.907171 85.701 -152.1788
33.145630 85.721 -152.4921
33.385817 85.740 -152.8034
33.627745 85.760 -153.1126
33.871425 85.780 -153.4205
34.116871 85.800 -153.7279
34.364096 85.820 -154.0358
34.613113 85.840 -154.3449
34.863934 85.860 -154.6551
35.116572 85.879 -154.9656
35.371041 85.898 -155.2753
35.627354 85.917 -155.5832
35.885525 85.935 -155.8885
36.145566 85.953 -156.1915
36.407492 85.972 -156.4932
36.671316 85.991 -156.7949
36.937051 86.010 -157.0979
37.204712 86.029 -157.4031
37.474313 86.048 -157.7106
37.745867 86.067 -158.0199
38.019389 86.086 -158.3304
38.294893 86.104 -158.6417
38.572394 86.123 -158.9539
38.851905 86.142 -159.2676
39.133442 86.161 -159.5838
39.417019 86.180 -159.9029
39.702651 86.199 -160.2247
39.990353 86.217 -160.5480
40.280140 86.235 -160.8712
40.572026 86.253 -161.1926
40.866028 86.270 -161.5112
41.162160 86.288 -161.8270
41.460438 86.307 -162.1409
41.760877 86.326 -162.4544
42.063494 86.346 -162.7697
42.368303 86.367 -163.0888
42.675322 86.388 -163.4135
42.984565 86.410 -163.7454
43.296048 86.432 -164.0854
43.609789 86.453 -164.4337
43.925804 86.473 -164.7893
44.244108 86.492 -165.1498
44.564719 86.509 -165.5117
44.887654 86.525 -165.8713
45.212928 86.540 -166.2253
45.540560 86.555 -166.5721
45.870565 86.570 -166.9125
46.202962 86.586 -167.2490
46.537768 86.603 -167.5855
46.875000 86.621 -167.9256
47.214676 86.640 -168.2719
47.556813 86.659 -168.6252
47.901429 86.678 -168.9847
48.248542 86.696 -169.3490
48.598171 86.715 -169.7165
48.950334 86.733 -170.0866
49.305048 86.752 -170.4592
49.662333 86.770 -170.8347
50.022206 86.788 -171.2133
50.384688 86.806 -171.5948
50.749796 86.824 -171.9785
51.117550 86.841 -172.3638
51.487969 86.857 -172.7503
51.861072 86.873 -173.1384
52.236879 86.889 -173.5287
52.615409 86.905 -173.9215
52.996681 86.919 -174.3171
53.380717 86.934 -174.7155
53.767536 86.947 -175.1168
54.157158 86.960 -175.5212
54.549603 86.973 -175.9289
54.944892 86.985 -176.3401
55.343045 86.996 -176.7549
55.744084 87.007 -177.1737
56.148028 87.018 -177.5972
56.554900 87.029 -178.0261
56.964720 87.040 -178.4611
57.377510 87.050 -178.9021
57.793291 87.060 -179.3477
58.212085 87.069 -179.7953
58.633914 87.077 179.7578
59.058799 87.084 179.3132
59.486764 87.092 178.8711
59.917829 87.099 178.4307
60.352019 87.106 177.9907
60.789354 87.113 177.5506
61.229859 87.119 177.1103
61.673556 87.124 176.6698
62.120468 87.128 176.2290
62.570618 87.131 175.7878
63.024031 87.133 175.3459
63.480729 87.133 174.9026
63.940736 87.132 174.4573
64.404077 87.129 174.0108
64.870776 87.124 173.5662
65.340856 87.118 173.1279
65.814343 87.113 172.6964
66.291261 87.111 172.2646
66.771635 87.111 171.8191
67.255489 87.113 171.3472
67.742850 87.114 170.8459
68.233743 87.113 170.3230
68.728193 87.110 169.7918
69.226226 87.104 169.2632
69.727867 87.097 168.7415
70.233144 87.090 168.2263
70.742083 87.083 167.7151
71.254709 87.075 167.2063
71.771050 87.067 166.6989
72.291132 87.058 166.1938
72.814984 87.047 165.6933
73.342631 87.034 165.1994
73.874102 87.020 164.7123
74.409424 87.005 164.2296
74.948626 86.989 163.7485
75.491734 86.973 163.2670
76.038779 86.955 162.7841
76.589787 86.936 162.2997
77.144788 86.917 161.8137
77.703811 86.897 161.3256
78.266885 86.877 160.8347
78.834039 86.856 160.3408
79.405303 86.835 159.8437
79.980706 86.814 159.3446
80.560280 86.791 158.8455
81.144053 86.767 158.3486
81.732056 86.743 157.8565
82.324320 86.717 157.3704
82.920876 86.691 156.8903
83.521755 86.665 156.4147
84.126988 86.638 155.9415
84.736607 86.610 155.4682
85.350643 86.581 154.9937
85.969129 86.552 154.5181
86.592097 86.521 154.0424
87.219579 86.489 153.5673
87.851608 86.457 153.0930
88.488217 86.424 152.6193
89.129439 86.391 152.1459
89.775308 86.357 151.6728
90.425856 86.322 151.2005
91.081119 86.286 150.7297
91.741131 86.249 150.2603
92.405925 86.212 149.7921
93.075536 86.173 149.3258
93.750000 86.132 148.8623
94.429351 86.091 148.4024
95.113625 86.049 147.9458
95.802858 86.006 147.4917
96.497085 85.962 147.0394
97.196342 85.918 146.5892
97.900667 85.873 146.1422
98.610096 85.827 145.6996
99.324665 85.781 145.2617
100.044413 85.735 144.8283
100.769376 85.688 144.3997
101.499592 85.641 143.9763
102.235100 85.593 143.5572
102.975938 85.544 143.1412
103.722144 85.495 142.7276
104.473757 85.445 142.3167
105.230817 85.394 141.9077
105.993363 85.343 141.4995
106.761435 85.291 141.0910
107.535072 85.239 140.6812
108.314315 85.186 140.2695
109.099206 85.131 139.8571
109.889783 85.075 139.4478
110.686090 85.018 139.0463
111.488167 84.961 138.6562
112.296056 84.903 138.2759
113.109800 84.847 137.8992
113.929440 84.791 137.5195
114.755020 84.735 137.1350
115.586582 84.677 136.7505
116.424170 84.618 136.3751
117.267827 84.558 136.0160
118.117598 84.499 135.6732
118.973527 84.442 135.3388
119.835658 84.386 135.0016
120.704037 84.330 134.6512
121.578708 84.272 134.2835
122.459718 84.210 133.9096
123.347111 84.142 133.5566
124.240935 84.071 133.2488
125.141236 84.002 132.9860
126.048061 83.939 132.7410
126.961458 83.882 132.4771
127.881473 83.828 132.1659
128.808154 83.772 131.8004
129.741551 83.709 131.3996
130.681712 83.637 131.0038
131.628686 83.559 130.6552
132.582521 83.481 130.3681
133.543269 83.408 130.1183
134.510979 83.341 129.8695
135.485701 83.275 129.6094
136.467486 83.207 129.3542
137.456386 83.137 129.1238
138.452451 83.067 128.9264
139.455735 82.998 128.7565
140.466288 82.932 128.5959
141.484165 82.870 128.4178
142.509418 82.808 128.2006
143.542100 82.742 127.9450
144.582265 82.671 127.6760
145.629968 82.595 127.4256
146.685262 82.518 127.2079
147.748204 82.443 127.0112
148.818849 82.370 126.8156
149.897251 82.297 126.6117
150.983469 82.225 126.4030
152.077557 82.152 126.1966
153.179574 82.079 125.9962
154.289576 82.005 125.8034
155.407622 81.932 125.6214
156.533770 81.859 125.4544
157.668078 81.785 125.3038
158.810606 81.713 125.1659
159.961413 81.641 125.0338
161.120559 81.569 124.9011
162.288105 81.499 124.7650
163.464112 81.428 124.6272
164.648640 81.358 124.4924
165.841752 81.289 124.3658
167.043510 81.219 124.2506
168.253976 81.149 124.1471
169.473213 81.079 124.0524
170.701286 81.008 123.9633
171.938258 80.937 123.8771
173.184194 80.866 123.7916
174.439158 80.796 123.7056
175.703216 80.726 123.6205
176.976434 80.657 123.5410
178.258878 80.587 123.4733
179.550615 80.517 123.4202
180.851713 80.446 123.3799
182.162239 80.376 123.3473
183.482262 80.307 123.3167
184.811850 80.239 123.2847
186.151073 80.172 123.2513
187.500000 80.105 123.2184
188.858702 80.040 123.1890
190.227250 79.975 123.1668
191.605715 79.911 123.1543
192.994169 79.848 123.1511
194.392685 79.786 123.1535
195.801334 79.725 123.1562
197.220191 79.663 123.1566
198.649330 79.600 123.1575
200.088825 79.537 123.1658
201.538751 79.474 123.1848
202.999184 79.412 123.2126
204.470200 79.352 123.2450
205.951875 79.293 123.2773
207.444287 79.236 123.3069
208.947514 79.179 123.3333
210.461634 79.123 123.3580
211.986726 79.068 123.3837
213.522869 79.012 123.4127
215.070144 78.957 123.4473
216.628631 78.902 123.4890
218.198411 78.847 123.5385
219.779567 78.794 123.5947
221.372180 78.742 123.6554
222.976334 78.693 123.7179
224.592112 78.645 123.7794
226.219600 78.598 123.8376
227.858880 78.553 123.8902
229.510039 78.508 123.9363
231.173164 78.463 123.9766
232.848340 78.416 124.0137
234.535655 78.369 124.0493
236.235197 78.320 124.0855
237.947054 78.272 124.1283
239.671317 78.226 124.1855
241.408074 78.183 124.2624
243.157416 78.144 124.3586
244.919435 78.107 124.4661
246.694223 78.071 124.5728
248.481871 78.034 124.6715
250.282473 77.994 124.7623
252.096123 77.952 124.8431
253.922915 77.907 124.9072
255.762945 77.859 124.9530
257.616309 77.808 124.9892
259.483103 77.757 125.0273
261.363424 77.708 125.0784
263.257372 77.662 125.1562
265.165043 77.620 125.2722
267.086538 77.582 125.4246
269.021957 77.547 125.5999
270.971401 77.513 125.7882
272.934972 77.481 125.9927
274.912771 77.448 126.2263
276.904902 77.415 126.5053
278.911469 77.384 126.8427
280.932577 77.354 127.2444
282.968330 77.328 127.7092
285.018835 77.306 128.2287
287.084199 77.289 128.7884
289.164530 77.273 129.3705
291.259935 77.259 129.9536
293.370525 77.245 130.5168
295.496408 77.229 131.0485
297.637697 77.210 131.5480
299.794503 77.187 132.0249
301.966937 77.160 132.4962
304.155114 77.131 132.9767
306.359147 77.101 133.4721
308.579152 77.071 133.9802
310.815244 77.042 134.4932
313.067539 77.013 135.0049
315.336156 76.984 135.5178
317.621211 76.957 136.0407
319.922826 76.929 136.5806
322.241118 76.902 137.1424
324.576210 76.876 137.7291
326.928223 76.851 138.3408
329.297280 76.827 138.9708
331.683504 76.805 139.6076
334.087019 76.785 140.2412
336.507952 76.766 140.8679
338.946427 76.747 141.4891
341.402572 76.728 142.1096
343.876516 76.708 142.7368
346.368387 76.687 143.3767
348.878315 76.666 144.0303
351.406431 76.644 144.6941
353.952867 76.624 145.3633
356.517756 76.603 146.0331
359.101230 76.584 146.7003
361.703426 76.564 147.3661
364.324478 76.543 148.0370
366.964523 76.523 148.7215
369.623699 76.503 149.4269
372.302145 76.487 150.1591
375.000000 76.475 150.9207
377.717405 76.468 151.7085
380.454501 76.463 152.5121
383.211431 76.460 153.3163
385.988339 76.457 154.1057
388.785369 76.452 154.8701
391.602668 76.447 155.6124
394.440383 76.441 156.3493
397.298660 76.437 157.1022
400.177650 76.435 157.8822
403.077502 76.435 158.6830
405.998368 76.436 159.4890
408.940400 76.437 160.2890
411.903750 76.438 161.0855
414.888575 76.436 161.8898
417.895028 76.433 162.7117
420.923268 76.427 163.5542
423.973452 76.419 164.4118
427.045738 76.409 165.2729
430.140287 76.398 166.1275
433.257261 76.385 166.9703
436.396822 76.372 167.8018
439.559133 76.358 168.6266
442.744360 76.346 169.4507
445.952668 76.336 170.2797
449.184225 76.329 171.1215
452.439199 76.325 171.9851
455.717760 76.323 172.8785
459.020079 76.321 173.8049
462.346327 76.320 174.7608
465.696680 76.323 175.7382
469.071310 76.328 176.7260
472.470394 76.336 177.7081
475.894109 76.346 178.6650
479.342634 76.356 179.5796
482.816148 76.366 -179.5558
486.314833 76.375 -178.7464
489.838871 76.380 -177.9977
493.388445 76.379 -177.3139
496.963741 76.374 -176.6936
500.564945 76.364 -176.1328
504.192245 76.351 -175.6283
507.845830 76.337 -175.1766
511.525890 76.324 -174.7719
515.232618 76.314 -174.4057
518.966206 76.307 -174.0681
522.726849 76.304 -173.7485
526.514743 76.304 -173.4353
530.330086 76.306 -173.1183
534.173076 76.310 -172.7928
538.043915 76.314 -172.4601
541.942803 76.318 -172.1244
545.869944 76.322 -171.7892
549.825542 76.327 -171.4544
553.809805 76.332 -171.1182
557.822939 76.337 -170.7791
561.865154 76.343 -170.4366
565.936660 76.350 -170.0918
570.037671 76.358 -169.7469
574.168399 76.368 -169.4046
578.329060 76.380 -169.0653
582.519870 76.392 -168.7268
586.741049 76.404 -168.3854
590.992817 76.415 -168.0380
595.275394 76.427 -167.6845
599.589005 76.439 -167.3280
603.933874 76.452 -166.9732
608.310228 76.465 -166.6239
612.718295 76.479 -166.2812
617.158304 76.493 -165.9435
621.630488 76.508 -165.6081
626.135079 76.522 -165.2730
630.672311 76.536 -164.9365
635.242423 76.550 -164.5981
639.845651 76.565 -164.2595
644.482237 76.581 -163.9242
649.152421 76.597 -163.5948
653.856447 76.613 -163.2696
658.594560 76.628 -162.9409
663.367008 76.642 -162.5972
668.174039 76.654 -162.2280
673.015903 76.665 -161.8282
677.892854 76.675 -161.3994
682.805145 76.687 -160.9475
687.753032 76.702 -160.4786
692.736774 76.721 -159.9970
697.756631 76.745 -159.5045
702.812863 76.773 -159.0037
707.905735 76.807 -158.4995
713.035511 76.845 -157.9983
718.202461 76.888 -157.5061
723.406852 76.935 -157.0286
728.648956 76.985 -156.5705
733.929047 77.036 -156.1337
739.247399 77.089 -155.7168
744.604290 77.141 -155.3166
750.000000 77.194 -154.9292
755.434809 77.247 -154.5497
760.909001 77.301 -154.1733
766.422861 77.355 -153.7973
771.976677 77.410 -153.4220
777.570739 77.467 -153.0493
783.205337 77.526 -152.6810
788.880766 77.586 -152.3178
794.597321 77.649 -151.9602
800.355301 77.714 -151.6088
806.155005 77.780 -151.2652
811.996736 77.849 -150.9300
817.880799 77.919 -150.6034
823.807501 77.992 -150.2849
829.777150 78.065 -149.9749
835.790057 78.141 -149.6742
841.846536 78.218 -149.3844
847.946903 78.298 -149.1069
854.091476 78.379 -148.8428
860.280575 78.462 -148.5938
866.514523 78.546 -148.3614
872.793644 78.632 -148.1462
879.118267 78.720 -147.9479
885.488720 78.810 -147.7661
891.905336 78.901 -147.6009
898.368450 78.994 -147.4523
904.878398 79.088 -147.3202
911.435520 79.183 -147.2043
918.040157 79.278 -147.1057
924.692655 79.375 -147.0280
931.393359 79.472 -146.9760
938.142619 79.570 -146.9525
944.940787 79.668 -146.9570
951.788218 79.766 -146.9874
958.685268 79.864 -147.0422
965.632296 79.962 -147.1213
972.629666 80.059 -147.2261
979.677741 80.156 -147.3581
986.776890 80.251 -147.5185
993.927482 80.346 -147.7067
1001.129891 80.438 -147.9207
1008.384491 80.529 -148.1584
1015.691660 80.618 -148.4188
1023.051781 80.705 -148.7020
1030.465236 80.789 -149.0082
1037.932411 80.870 -149.3369
1045.453698 80.949 -149.6866
1053.029486 81.024 -150.0564
1060.660172 81.095 -150.4447
1068.346153 81.163 -150.8495
1076.087829 81.227 -151.2680
1083.885605 81.286 -151.6982
1091.739887 81.342 -152.1386
1099.651084 81.393 -152.5881
1107.619609 81.439 -153.0450
1115.645878 81.482 -153.5073
1123.730308 81.520 -153.9730
1131.873321 81.554 -154.4396
1140.075341 81.584 -154.9051
1148.336797 81.610 -155.3680
1156.658119 81.633 -155.8266
1165.039741 81.651 -156.2792
1173.482099 81.666 -156.7240
1181.985634 81.676 -157.1590
1190.550789 81.682 -157.5826
1199.178011 81.685 -157.9930
1207.867749 81.685 -158.3896
1216.620457 81.681 -158.7716
1225.436590 81.675 -159.1390
1234.316609 81.667 -159.4915
1243.260976 81.657 -159.8287
1252.270157 81.645 -160.1494
1261.344623 81.631 -160.4523
1270.484846 81.616 -160.7355
1279.691303 81.598 -160.9970
1288.964474 81.579 -161.2355
1298.304842 81.558 -161.4514
1307.712894 81.537 -161.6468
1317.189120 81.514 -161.8244
1326.734016 81.491 -161.9862
1336.348077 81.468 -162.1327
1346.031806 81.446 -162.2631
1355.785708 81.424 -162.3756
1365.610290 81.402 -162.4686
1375.506065 81.381 -162.5412
1385.473549 81.360 -162.5938
1395.513261 81.340 -162.6278
1405.625726 81.319 -162.6444
1415.811469 81.300 -162.6447
1426.071023 81.281 -162.6288
1436.404921 81.263 -162.5971
1446.813703 81.247 -162.5497
1457.297912 81.232 -162.4873
1467.858093 81.219 -162.4103
1478.494798 81.207 -162.3196
1489.208581 81.197 -162.2160
1500.000000 81.189 -162.1002
1510.869618 81.183 -161.9725
1521.818002 81.179 -161.8331
1532.845723 81.177 -161.6822
1543.953355 81.177 -161.5202
1555.141477 81.179 -161.3481
1566.410674 81.184 -161.1668
1577.761531 81.191 -160.9774
1589.194642 81.201 -160.7812
1600.710601 81.213 -160.5792
1612.310010 81.229 -160.3721
1623.993473 81.247 -160.1609
1635.761599 81.269 -159.9462
1647.615002 81.293 -159.7285
1659.554299 81.319 -159.5081
1671.580114 81.349 -159.2855
1683.693072 81.382 -159.0614
1695.893807 81.418 -158.8376
1708.182952 81.457 -158.6160
1720.561150 81.500 -158.3989
1733.029045 81.546 -158.1882
1745.587288 81.596 -157.9856
1758.236533 81.650 -157.7926
1770.977440 81.707 -157.6107
1783.810673 81.767 -157.4413
1796.736900 81.831 -157.2858
1809.756796 81.897 -157.1454
1822.871040 81.967 -157.0219
1836.080315 82.040 -156.9169
1849.385310 82.115 -156.8322
1862.786718 82.193 -156.7694
1876.285239 82.273 -156.7302
1889.881575 82.355 -156.7168
1903.576436 82.439 -156.7311
1917.370535 82.524 -156.7749
1931.264593 82.610 -156.8494
1945.259332 82.698 -156.9555
1959.355483 82.785 -157.0940
1973.553781 82.873 -157.2658
1987.854965 82.960 -157.4720
2002.259781 83.046 -157.7131
2016.768981 83.131 -157.9886
2031.383320 83.213 -158.2971
2046.103561 83.293 -158.6372
2060.930471 83.370 -159.0066
2075.864823 83.444 -159.4029
2090.907395 83.513 -159.8233
2106.058972 83.578 -160.2646
2121.320344 83.639 -160.7235
2136.692305 83.695 -161.1969
2152.175658 83.747 -161.6822
2167.771210 83.794 -162.1759
2183.479774 83.836 -162.6738
2199.302169 83.873 -163.1707
2215.239219 83.905 -163.6606
2231.291755 83.932 -164.1383
2247.460615 83.954 -164.6002
2263.746641 83.972 -165.0441
2280.150683 83.985 -165.4688
2296.673595 83.994 -165.8722
2313.316238 84.000 -166.2513
2330.079481 84.004 -166.6030
2346.964198 84.006 -166.9257
2363.971268 84.008 -167.2195
2381.101578 84.009 -167.4861
2398.356022 84.011 -167.7275
2415.735498 84.014 -167.9451
2433.240913 84.019 -168.1400
2450.873180 84.027 -168.3127
2468.633217 84.038 -168.4648
2486.521951 84.052 -168.5985
2504.540314 84.069 -168.7169
2522.689246 84.089 -168.8233
2540.969692 84.114 -168.9206
2559.382606 84.142 -169.0121
2577.928947 84.174 -169.1008
2596.609683 84.210 -169.1900
2615.425787 84.250 -169.2825
2634.378241 84.293 -169.3816
2653.468031 84.341 -169.4907
2672.696154 84.392 -169.6125
2692.063613 84.446 -169.7487
2711.571415 84.502 -169.9001
2731.220579 84.560 -170.0669
2751.012130 84.618 -170.2494
2770.947098 84.676 -170.4481
2791.026522 84.734 -170.6635
2811.251451 84.791 -170.8956
2831.622938 84.848 -171.1440
2852.142045 84.905 -171.4077
2872.809842 84.961 -171.6856
2893.627406 85.016 -171.9760
2914.595823 85.070 -172.2768
2935.716186 85.123 -172.5859
2956.989596 85.175 -172.9006
2978.417161 85.226 -173.2185
3000.000000 85.276 -173.5371
3021.739237 85.325 -173.8547
3043.636005 85.374 -174.1695
3065.691446 85.422 -174.4799
3087.906710 85.470 -174.7843
3110.282955 85.518 -175.0812
3132.821347 85.567 -175.3695
3155.523062 85.617 -175.6489
3178.389283 85.669 -175.9197
3201.421202 85.722 -176.1825
3224.620020 85.777 -176.4383
3247.986946 85.835 -176.6879
3271.523198 85.895 -176.9322
3295.230004 85.958 -177.1726
3319.108599 86.025 -177.4111
3343.160228 86.095 -177.6500
3367.386145 86.169 -177.8916
3391.787613 86.246 -178.1385
3416.365904 86.328 -178.3932
3441.122300 86.414 -178.6583
3466.058091 86.504 -178.9368
3491.174576 86.598 -179.2314
3516.473066 86.697 -179.5447
3541.954880 86.799 -179.8792
3567.621345 86.905 179.7624
3593.473800 87.015 179.3776
3619.513592 87.128 178.9637
3645.742080 87.243 178.5180
3672.160630 87.362 178.0384
3698.770620 87.482 177.5228
3725.573436 87.605 176.9696
3752.570477 87.729 176.3768
3779.763150 87.854 175.7429
3807.152872 87.980 175.0666
3834.741071 88.106 174.3470
3862.529185 88.232 173.5839
3890.518664 88.357 172.7776
3918.710966 88.481 171.9289
3947.107561 88.603 171.0392
3975.709929 88.723 170.1103
4004.519563 88.840 169.1441
4033.537962 88.954 168.1429
4062.766641 89.066 167.1093
4092.207123 89.173 166.0458
4121.860942 89.277 164.9554
4151.729646 89.377 163.8409
4181.814790 89.474 162.7056
4212.117944 89.566 161.5523
4242.640687 89.655 160.3842
4273.384610 89.740 159.2041
4304.351317 89.822 158.0150
4335.542421 89.900 156.8195
4366.959549 89.975 155.6199
4398.604338 90.047 154.4183
4430.478438 90.118 153.2162
4462.583511 90.187 152.0147
4494.921231 90.254 150.8140
4527.493283 90.321 149.6135
4560.301365 90.388 148.4122
4593.347189 90.454 147.2086
4626.632476 90.521 146.0009
4660.158962 90.589 144.7870
4693.928395 90.658 143.5649
4727.942535 90.728 142.3327
4762.203156 90.800 141.0881
4796.712043 90.873 139.8292
4831.470996 90.949 138.5537
4866.481826 91.026 137.2599
4901.746360 91.106 135.9463
4937.266434 91.188 134.6127
4973.043902 91.272 133.2617
5009.080628 91.359 131.9007
5045.378492 91.447 130.5469
5081.939384 91.535 129.2336
5118.765212 91.623 128.0203
5155.857894 91.709 127.0055
5193.219366 91.791 126.3391
5230.851574 91.872 126.2257
5268.756481 91.956 126.9031
5306.936062 92.049 128.5799
5345.392309 92.153 131.3600
5384.127225 92.264 135.2024
5423.142830 92.374 139.9397
5462.441159 92.474 145.3452
5502.024259 92.561 151.2035
5541.894195 92.631 157.3485
5582.053045 92.684 163.6700
5622.502902 92.719 170.1038
5663.245876 92.736 176.6199
5704.284090 92.732 -176.7890
5745.619684 92.706 -170.1155
5787.254813 92.658 -163.3430
5829.191647 92.588 -156.4500
5871.432373 92.496 -149.4121
5913.979192 92.381 -142.2050
5956.834323 92.246 -134.8052
6000.000000 92.090 -127.1911
6043.478473 91.916 -119.3436
6087.272010 91.726 -111.2467
6131.382892 91.521 -102.8870
6175.813420 91.304 -94.2546
6220.565910 91.075 -85.3423
6265.642695 90.838 -76.1452
6311.046124 90.595 -66.6597
6356.778566 90.346 -56.8837
6402.842404 90.094 -46.8166
6449.240040 89.840 -36.4582
6495.973891 89.587 -25.8104
6543.046396 89.335 -14.8758
6590.460007 89.086 -3.6576
6638.217197 88.841 7.8403
6686.320456 88.602 19.6141
6734.772290 88.369 31.6610
6783.575226 88.144 43.9789
6832.731809 87.927 56.5665
6882.244600 87.720 69.4217
6932.116181 87.523 82.5421
6982.349153 87.337 95.9246
7032.946133 87.164 109.5665
7083.909760 87.005 123.4658
7135.242690 86.860 137.6240
7186.947600 86.731 152.0488
7239.027185 86.619 166.7552
7291.484160 86.527 -178.2372
7344.321260 86.457 -162.9198
7397.541239 86.413 -147.3215
7451.146872 86.395 -131.5262
7505.140954 86.404 -115.6487
7559.526299 86.437 -99.7584
7614.305743 86.489 -83.8240
7669.482141 86.562 -67.7491
7725.058371 86.656 -51.4498
7781.037328 86.776 -34.8977
7837.421932 86.924 -18.1171
7894.215122 87.103 -1.1668
7951.419859 87.314 15.8751
8009.039125 87.557 32.9175
8067.075924 87.828 49.8550
8125.533282 88.124 66.5656
8184.414245 88.437 82.9142
8243.721885 88.758 98.7631
8303.459292 89.076 113.9865
8363.629581 89.376 128.4891
8424.235888 89.643 142.2230
8485.281374 89.858 155.1992
8546.769221 90.005 167.4924
8608.702634 90.067 179.2372
8671.084842 90.031 -169.3813
8733.919097 89.887 -158.1412
8797.208675 89.631 -146.7973
8860.956876 89.264 -135.0974
8925.167022 88.791 -122.7949
8989.842461 88.223 -109.6594
9054.986566 87.574 -95.4830
9120.602731 86.858 -80.0789
9186.694378 86.092 -63.2761
9253.264952 85.291 -44.9184
9320.317925 84.471 -24.9124
9387.856790 83.646 -3.4179
9455.885071 82.829 18.8085
9524.406312 82.027 40.3008
9593.424086 81.243 59.5481
9662.941992 80.474 75.9095
9732.963653 79.720 89.6889
9803.492719 78.984 101.6022
9874.532869 78.271 112.3506
9946.087805 77.588 122.4642
10018.161257 76.935 132.2946
10090.756983 76.313 142.0525
10163.878768 75.721 151.8519
10237.530423 75.156 161.7456
10311.715789 74.616 171.7521
10386.438732 74.100 -178.1267
10461.703149 73.605 -167.8951
10537.512962 73.130 -157.5594
10613.872125 72.674 -147.1237
10690.784618 72.235 -136.5913
10768.254450 71.814 -125.9653
10846.285661 71.408 -115.2493
10924.882318 71.017 -104.4475
11004.048518 70.641 -93.5635
11083.788390 70.278 -82.5994
11164.106090 69.929 -71.5571
11245.005805 69.591 -60.4392
11326.491752 69.266 -49.2479
11408.568180 68.952 -37.9849
11491.239368 68.649 -26.6498
11574.509626 68.358 -15.2411
11658.383294 68.077 -3.7563
11742.864745 67.807 7.8069
11827.958384 67.545 19.4509
11913.668646 67.294 31.1775
12000.000000 67.051 42.9879
12086.956947 66.818 54.8821
12174.544019 66.594 66.8608
12262.765784 66.380 78.9259
12351.626840 66.176 91.0780
12441.131819 65.982 103.3149
12531.285389 65.798 115.6340
12622.092249 65.624 128.0330
12713.557132 65.460 140.5109
12805.684808 65.306 153.0701
12898.480079 65.162 165.7167
12991.947783 65.027 178.4557
13086.092792 64.903 -168.7089
13180.920015 64.790 -155.7733
13276.434395 64.688 -142.7340
13372.640911 64.598 -129.5909
13469.544580 64.520 -116.3488
13567.150452 64.455 -103.0156
13665.463617 64.403 -89.5916
13764.489200 64.366 -76.0673
13864.232362 64.346 -62.4281
13964.698305 64.344 -48.6608
14065.892266 64.362 -34.7577
14167.819519 64.402 -20.7205
14270.485380 64.468 -6.5549
14373.895200 64.561 7.7328
14478.054370 64.684 22.1396
14582.968320 64.842 36.6682
14688.642520 65.038 51.3257
14795.082478 65.279 66.1228
14902.293745 65.570 81.0725
15010.281908 65.921 96.1771
15119.052599 66.339 111.4100
15228.611486 66.834 126.6842
15338.964283 67.411 141.8184
15450.116741 68.069 156.5149
15562.074656 68.804 170.3761
15674.843864 69.598 -177.0303
15788.430244 70.424 -166.0813
15902.839718 71.245 -157.0189
16018.078250 72.014 -149.9156
16134.151848 72.680 -144.6776
16251.066563 73.188 -141.0627
16368.828491 73.488 -138.6957
16487.443769 73.540 -137.0831
16606.918584 73.323 -135.6489
16727.259161 72.839 -133.7957
16848.471777 72.111 -130.9724
16970.562748 71.177 -126.7161
17093.538442 70.081 -120.6571
17217.405268 68.871 -112.5157
17342.169684 67.592 -102.1058
17467.838194 66.286 -89.3639
17594.417350 64.991 -74.3921
17721.913751 63.737 -57.4869
17850.334044 62.551 -39.1028
17979.684923 61.447 -19.7426
18109.973131 60.435 0.1638
18241.205462 59.518 20.3235
18373.388756 58.692 40.5710
18506.529905 57.951 60.8174
18640.635849 57.286 81.0042
18775.713581 56.685 101.0857
18911.770141 56.136 121.0405
19048.812624 55.627 140.8855
19186.848172 55.147 160.6401
19325.883983 54.690 -179.7793
19465.927305 54.255 -160.7427
19606.985439 53.854 -143.0750
19749.065738 53.507 -128.0366
19892.175609 53.246 -117.0181
20036.322514 53.105 -111.1702

