* Measurement data measured by REW V5.20.13
* Source: C:\Users\tpgnm\OneDrive\Documents\Measurements\SecritTuning.txt
* Format: Comma/Tab/Space delimited data
* Dated: Jan 5, 2023 9:13:51 PM
* REW Settings:
*  C-weighting compensation: Off
*  Target level: 75.0 dB
* Note: Measurement imported from C:\Users\tpgnm\OneDrive\Documents\Measurements\SecritTuning.txt Format: Comma/Tab/Space delimited data 37 values loaded, 20 Hz to 20,000 Hz
* Measurement: test
* Smoothing: 1/24 octave
* Frequency Step: 1/48 octave
* Start Frequency: 20.000 Hz
*
* Freq(Hz)	SPL(dB)
20.000000	104.411
20.299999	104.418
20.600000	104.436
20.900000	104.455
21.200001	104.474
21.400000	104.486
21.799999	104.510
22.000000	104.522
22.400000	104.546
22.700001	104.564
23.000000	104.582
23.299999	104.599
23.600000	104.616
24.000000	104.639
24.299999	104.656
24.700001	104.677
25.000000	104.693
25.400000	104.714
25.799999	104.735
26.200001	104.754
26.500000	104.768
26.900000	104.787
27.200001	104.800
27.600000	104.817
28.000000	104.833
28.500000	104.852
29.000000	104.869
29.500000	104.885
30.000000	104.896
30.400000	104.901
30.700001	104.903
31.100000	104.904
31.500000	104.904
32.000000	104.903
32.500000	104.899
33.000000	104.895
33.500000	104.889
34.000000	104.881
34.500000	104.872
35.000000	104.862
35.500000	104.850
36.000000	104.838
36.500000	104.824
37.000000	104.809
37.500000	104.793
38.200001	104.769
38.700001	104.751
39.500000	104.720
40.000000	104.701
40.599998	104.677
41.200001	104.653
41.799999	104.629
42.500000	104.599
43.099998	104.572
43.700001	104.544
44.400002	104.511
45.000000	104.481
45.500000	104.455
46.200001	104.419
46.799999	104.386
47.500000	104.347
48.200001	104.307
48.700001	104.278
49.400002	104.236
50.000000	104.199
50.799999	104.148
51.500000	104.103
52.200001	104.056
53.000000	104.002
53.799999	103.947
54.500000	103.898
55.200001	103.848
56.000000	103.791
57.000000	103.719
58.000000	103.647
59.000000	103.574
60.000000	103.501
60.799999	103.445
61.500000	103.395
62.200001	103.346
63.000000	103.290
64.000000	103.220
65.000000	103.150
66.000000	103.080
67.000000	103.010
68.000000	102.940
69.000000	102.870
70.000000	102.800
71.000000	102.728
72.000000	102.656
73.000000	102.585
74.000000	102.513
75.000000	102.443
76.199997	102.359
77.500000	102.269
78.800003	102.181
80.000000	102.101
81.199997	102.022
82.500000	101.937
83.800003	101.853
85.000000	101.776
86.199997	101.700
87.500000	101.618
88.500000	101.556
90.000000	101.464
91.199997	101.392
92.500000	101.315
93.800003	101.239
95.000000	101.171
96.199997	101.104
97.500000	101.033
98.800003	100.964
100.000000	100.902
101.500000	100.825
103.000000	100.750
104.400002	100.681
106.000000	100.602
107.500000	100.528
109.000000	100.455
110.599998	100.378
112.000000	100.311
113.800003	100.225
115.000000	100.168
117.199997	100.065
118.000000	100.028
120.599998	99.908
122.000000	99.844
124.099998	99.750
125.000000	99.710
126.500000	99.643
128.000000	99.578
131.500000	99.427
132.000000	99.406
134.000000	99.322
136.000000	99.240
138.000000	99.158
140.000000	99.078
143.000000	98.961
145.000000	98.885
147.500000	98.792
150.000000	98.703
152.500000	98.619
155.000000	98.538
157.500000	98.460
160.000000	98.384
162.500000	98.311
165.000000	98.241
167.500000	98.173
170.000000	98.107
172.500000	98.043
175.000000	97.983
177.500000	97.924
180.000000	97.868
182.500000	97.814
185.000000	97.762
187.500000	97.713
190.000000	97.666
192.500000	97.622
195.000000	97.579
197.500000	97.540
200.000000	97.504
203.000000	97.466
206.000000	97.434
209.000000	97.404
212.000000	97.377
214.000000	97.361
218.000000	97.331
220.000000	97.318
224.000000	97.294
227.000000	97.278
230.000000	97.264
233.000000	97.251
236.000000	97.240
240.000000	97.227
243.000000	97.218
247.000000	97.206
250.000000	97.196
254.000000	97.179
258.000000	97.161
262.000000	97.142
265.000000	97.128
269.000000	97.111
272.000000	97.098
276.000000	97.082
280.000000	97.066
285.000000	97.048
290.000000	97.031
295.000000	97.015
300.000000	97.000
304.000000	96.988
307.000000	96.980
311.000000	96.969
315.000000	96.958
320.000000	96.944
325.000000	96.931
330.000000	96.919
335.000000	96.906
340.000000	96.895
345.000000	96.884
350.000000	96.873
355.000000	96.863
360.000000	96.854
365.000000	96.845
370.000000	96.836
375.000000	96.829
382.000000	96.819
387.000000	96.813
395.000000	96.805
400.000000	96.802
406.000000	96.801
412.000000	96.803
418.000000	96.805
425.000000	96.809
431.000000	96.813
437.000000	96.818
444.000000	96.825
450.000000	96.832
455.000000	96.837
462.000000	96.846
468.000000	96.854
475.000000	96.864
482.000000	96.873
487.000000	96.881
494.000000	96.891
500.000000	96.898
508.000000	96.906
515.000000	96.913
522.000000	96.919
530.000000	96.926
538.000000	96.933
545.000000	96.939
552.000000	96.946
560.000000	96.954
570.000000	96.964
580.000000	96.976
590.000000	96.988
600.000000	97.001
608.000000	97.013
615.000000	97.024
622.000000	97.036
630.000000	97.050
640.000000	97.069
650.000000	97.088
660.000000	97.109
670.000000	97.130
680.000000	97.153
690.000000	97.176
700.000000	97.200
710.000000	97.223
720.000000	97.247
730.000000	97.273
740.000000	97.300
750.000000	97.328
762.000000	97.365
775.000000	97.408
788.000000	97.455
800.000000	97.502
812.000000	97.550
825.000000	97.605
838.000000	97.661
850.000000	97.714
862.000000	97.768
875.000000	97.829
885.000000	97.876
900.000000	97.949
912.000000	98.009
925.000000	98.076
938.000000	98.145
950.000000	98.210
962.000000	98.277
975.000000	98.352
988.000000	98.431
1000.000000	98.507
1015.000000	98.610
1030.000000	98.717
1044.000000	98.817
1060.000000	98.933
1075.000000	99.041
1090.000000	99.150
1106.000000	99.266
1120.000000	99.368
1138.000000	99.499
1150.000000	99.586
1172.000000	99.746
1180.000000	99.804
1206.000000	99.993
1220.000000	100.094
1241.000000	100.246
1250.000000	100.310
1265.000000	100.418
1280.000000	100.524
1315.000000	100.772
1320.000000	100.807
1340.000000	100.946
1360.000000	101.084
1380.000000	101.221
1400.000000	101.356
1430.000000	101.555
1450.000000	101.685
1475.000000	101.844
1500.000000	101.994
1525.000000	102.131
1550.000000	102.260
1575.000000	102.384
1600.000000	102.505
1625.000000	102.622
1650.000000	102.735
1675.000000	102.845
1700.000000	102.952
1725.000000	103.056
1750.000000	103.156
1775.000000	103.254
1800.000000	103.348
1825.000000	103.439
1850.000000	103.528
1875.000000	103.613
1900.000000	103.696
1925.000000	103.776
1950.000000	103.853
1975.000000	103.928
2000.000000	104.000
2030.000000	104.084
2060.000000	104.165
2090.000000	104.242
2120.000000	104.316
2140.000000	104.363
2180.000000	104.454
2200.000000	104.497
2240.000000	104.580
2270.000000	104.638
2300.000000	104.694
2330.000000	104.747
2360.000000	104.797
2400.000000	104.860
2430.000000	104.905
2470.000000	104.961
2500.000000	105.002
2540.000000	105.056
2580.000000	105.109
2620.000000	105.157
2650.000000	105.191
2690.000000	105.232
2720.000000	105.260
2760.000000	105.294
2800.000000	105.323
2850.000000	105.353
2900.000000	105.375
2950.000000	105.390
3000.000000	105.393
3040.000000	105.385
3070.000000	105.374
3110.000000	105.354
3150.000000	105.330
3200.000000	105.295
3250.000000	105.255
3300.000000	105.210
3350.000000	105.161
3400.000000	105.109
3450.000000	105.056
3500.000000	105.004
3550.000000	104.956
3600.000000	104.911
3650.000000	104.864
3700.000000	104.817
3750.000000	104.768
3820.000000	104.697
3870.000000	104.644
3950.000000	104.556
4000.000000	104.498
4060.000000	104.423
4120.000000	104.346
4180.000000	104.265
4250.000000	104.168
4310.000000	104.083
4370.000000	103.995
4440.000000	103.891
4500.000000	103.798
4550.000000	103.719
4620.000000	103.606
4680.000000	103.508
4750.000000	103.395
4820.000000	103.282
4870.000000	103.203
4940.000000	103.094
5000.000000	103.006
5080.000000	102.898
5150.000000	102.810
5220.000000	102.724
5300.000000	102.630
5380.000000	102.537
5450.000000	102.456
5520.000000	102.375
5600.000000	102.280
5700.000000	102.160
5800.000000	102.040
5900.000000	101.920
6000.000000	101.800
6080.000000	101.704
6150.000000	101.620
6220.000000	101.536
6300.000000	101.440
6400.000000	101.320
6500.000000	101.199
6600.000000	101.077
6700.000000	100.954
6800.000000	100.833
6900.000000	100.716
7000.000000	100.604
7100.000000	100.498
7200.000000	100.395
7300.000000	100.293
7400.000000	100.192
7500.000000	100.092
7620.000000	99.974
7750.000000	99.845
7880.000000	99.718
8000.000000	99.599
8120.000000	99.478
8250.000000	99.347
8380.000000	99.215
8500.000000	99.095
8620.000000	98.975
8750.000000	98.846
8850.000000	98.748
9000.000000	98.603
9120.000000	98.490
9250.000000	98.371
9380.000000	98.253
9500.000000	98.145
9620.000000	98.038
9750.000000	97.922
9880.000000	97.806
10000.000000	97.699
10150.000000	97.562
10300.000000	97.424
10440.000000	97.296
10600.000000	97.152
10750.000000	97.018
10900.000000	96.888
11060.000000	96.753
11200.000000	96.637
11380.000000	96.489
11500.000000	96.390
11720.000000	96.210
11800.000000	96.145
12060.000000	95.933
12200.000000	95.820
12410.000000	95.650
12500.000000	95.577
12650.000000	95.456
12800.000000	95.335
13150.000000	95.055
13200.000000	95.015
13400.000000	94.856
13600.000000	94.697
13800.000000	94.539
14000.000000	94.381
14300.000000	94.146
14500.000000	93.989
14750.000000	93.795
15000.000000	93.604
15250.000000	93.419
15500.000000	93.238
15750.000000	93.060
16000.000000	92.886
16250.000000	92.713
16500.000000	92.542
16750.000000	92.372
17000.000000	92.206
17250.000000	92.047
17500.000000	91.892
17750.000000	91.739
18000.000000	91.587
18250.000000	91.436
18500.000000	91.287
18750.000000	91.138
19000.000000	90.990
19250.000000	90.843
19500.000000	90.698
19750.000000	90.568
20000.000000	90.492
