* Measurement data measured by REW V5.30.4
* Source: Headset (2- CX31993 HIFI AUDIO), MICROPHONE (Master Volume), L, volume: 0.500
* Format: 256k Log Swept Sine, 1 sweep at -12.0 dBFS with no timing reference
* Dated: 06 23, 24 2:15:10 PM
* REW Settings:
*  C-weighting compensation: Off
*  Target level: 75.0 dB
* Note: ; 
* Measurement: Fengru MY88 Red 500 R
* Smoothing: 1/12 octave
* Frequency Step: 96 ppo
* Start Frequency: 20.141602 Hz
*
* Freq(Hz) SPL(dB) Phase(degrees)
20.141602 97.712 -4.3625
20.287556 97.708 -4.4001
20.434568 97.701 -4.5019
20.582645 97.692 -4.6481
20.731796 97.681 -4.8219
20.882027 97.669 -5.0123
21.033346 97.656 -5.2148
21.185762 97.642 -5.4316
21.339283 97.628 -5.6539
21.493916 97.614 -5.8813
21.649670 97.600 -6.1131
21.806553 97.587 -6.3483
21.964573 97.573 -6.5853
22.123737 97.559 -6.8290
22.284056 97.546 -7.0725
22.445536 97.533 -7.3121
22.608185 97.521 -7.5464
22.772013 97.510 -7.7750
22.937029 97.501 -7.9982
23.103241 97.492 -8.2221
23.270657 97.486 -8.4467
23.439285 97.480 -8.6712
23.609137 97.476 -8.8979
23.780218 97.473 -9.1283
23.952539 97.470 -9.3636
24.126110 97.467 -9.6098
24.300938 97.464 -9.8626
24.477032 97.460 -10.1186
24.654402 97.456 -10.3757
24.833057 97.451 -10.6319
25.013008 97.446 -10.8852
25.194263 97.440 -11.1396
25.376831 97.434 -11.3869
25.560722 97.428 -11.6256
25.745945 97.422 -11.8549
25.932510 97.416 -12.0740
26.120428 97.410 -12.2877
26.309708 97.403 -12.4938
26.500359 97.396 -12.6902
26.692390 97.389 -12.8778
26.885815 97.381 -13.0580
27.080641 97.373 -13.2353
27.276878 97.363 -13.4133
27.474539 97.353 -13.5909
27.673630 97.342 -13.7710
27.874165 97.330 -13.9562
28.076153 97.317 -14.1506
28.279604 97.304 -14.3570
28.484529 97.289 -14.5723
28.690941 97.275 -14.7958
28.898848 97.259 -15.0260
29.108261 97.244 -15.2633
29.319191 97.229 -15.5047
29.531651 97.214 -15.7453
29.745649 97.200 -15.9827
29.961199 97.187 -16.2152
30.178310 97.175 -16.4456
30.396996 97.164 -16.6706
30.617264 97.154 -16.8896
30.839128 97.143 -17.1036
31.062601 97.133 -17.3151
31.287693 97.123 -17.5276
31.514416 97.111 -17.7395
31.742783 97.098 -17.9521
31.972803 97.084 -18.1666
32.204491 97.069 -18.3869
32.437859 97.052 -18.6106
32.672916 97.033 -18.8373
32.909679 97.014 -19.0665
33.148155 96.993 -19.3006
33.388359 96.972 -19.5372
33.630306 96.950 -19.7735
33.874004 96.929 -20.0081
34.119469 96.908 -20.2416
34.366711 96.887 -20.4730
34.615746 96.867 -20.6990
34.866585 96.847 -20.9188
35.119244 96.829 -21.1335
35.373734 96.811 -21.3430
35.630066 96.794 -21.5455
35.888256 96.777 -21.7415
36.148315 96.761 -21.9348
36.410259 96.745 -22.1263
36.674103 96.729 -22.3161
36.939857 96.714 -22.5065
37.207539 96.698 -22.7010
37.477161 96.681 -22.8995
37.748737 96.664 -23.1016
38.022282 96.645 -23.3066
38.297806 96.625 -23.5163
38.575329 96.604 -23.7256
38.854862 96.583 -23.9336
39.136421 96.560 -24.1410
39.420021 96.537 -24.3487
39.705673 96.513 -24.5570
39.993397 96.488 -24.7668
40.283207 96.461 -24.9811
40.575115 96.433 -25.1966
40.869141 96.403 -25.4125
41.165295 96.372 -25.6301
41.463596 96.342 -25.8490
41.764057 96.312 -26.0683
42.066696 96.285 -26.2892
42.371529 96.260 -26.5132
42.678570 96.238 -26.7379
42.987835 96.217 -26.9609
43.299343 96.198 -27.1814
43.613110 96.180 -27.3940
43.929150 96.163 -27.5970
44.247478 96.145 -27.7934
44.568115 96.126 -27.9833
44.891075 96.105 -28.1685
45.216373 96.082 -28.3521
45.544029 96.056 -28.5345
45.874062 96.028 -28.7156
46.206486 95.998 -28.8974
46.541317 95.966 -29.0810
46.878574 95.934 -29.2683
47.218277 95.900 -29.4646
47.560440 95.866 -29.6721
47.905083 95.832 -29.8920
48.252224 95.799 -30.1251
48.601879 95.767 -30.3683
48.954067 95.737 -30.6168
49.308807 95.710 -30.8659
49.666119 95.686 -31.1088
50.026020 95.665 -31.3396
50.388531 95.646 -31.5556
50.753666 95.627 -31.7523
51.121449 95.607 -31.9310
51.491894 95.584 -32.0970
51.865025 95.558 -32.2555
52.240860 95.529 -32.4153
52.619419 95.498 -32.5824
53.000721 95.466 -32.7601
53.384785 95.435 -32.9501
53.771633 95.404 -33.1464
54.161285 95.375 -33.3433
54.553761 95.346 -33.5343
54.949081 95.316 -33.7144
55.347263 95.286 -33.8848
55.748333 95.254 -34.0494
56.152309 95.221 -34.2163
56.559212 95.187 -34.3933
56.969063 95.155 -34.5834
57.381886 95.123 -34.7865
57.797699 95.092 -34.9925
58.216526 95.062 -35.1921
58.638386 95.032 -35.3787
59.063305 95.001 -35.5511
59.491302 94.969 -35.7134
59.922401 94.934 -35.8704
60.356625 94.899 -36.0306
60.793995 94.865 -36.1990
61.234531 94.832 -36.3792
61.678261 94.801 -36.5698
62.125206 94.771 -36.7645
62.575390 94.742 -36.9550
63.028835 94.712 -37.1351
63.485569 94.679 -37.3052
63.945610 94.644 -37.4675
64.408989 94.607 -37.6299
64.875725 94.569 -37.7961
65.345840 94.531 -37.9676
65.819366 94.493 -38.1425
66.296318 94.457 -38.3190
66.776726 94.422 -38.4932
67.260620 94.387 -38.6609
67.748016 94.352 -38.8206
68.238945 94.318 -38.9748
68.733429 94.284 -39.1255
69.231499 94.251 -39.2704
69.733177 94.219 -39.4043
70.238495 94.187 -39.5217
70.747475 94.156 -39.6251
71.260139 94.124 -39.7304
71.776520 94.090 -39.8589
72.296638 94.052 -40.0233
72.820526 94.008 -40.2206
73.348213 93.962 -40.4344
73.879723 93.915 -40.6463
74.415085 93.871 -40.8465
74.954330 93.830 -41.0304
75.497482 93.792 -41.1987
76.044571 93.754 -41.3540
76.595619 93.714 -41.5004
77.150665 93.673 -41.6430
77.709732 93.631 -41.7865
78.272850 93.590 -41.9347
78.840050 93.549 -42.0900
79.411354 93.509 -42.2512
79.986801 93.467 -42.4146
80.566422 93.425 -42.5737
81.150238 93.380 -42.7218
81.738289 93.337 -42.8582
82.330597 93.295 -42.9900
82.927200 93.255 -43.1242
83.528122 93.216 -43.2626
84.133400 93.178 -43.4056
84.743065 93.139 -43.5500
85.357147 93.099 -43.6913
85.975677 93.058 -43.8284
86.598694 93.017 -43.9599
87.226227 92.975 -44.0898
87.858307 92.934 -44.2206
88.494965 92.893 -44.3527
89.136238 92.852 -44.4892
89.782158 92.811 -44.6310
90.432755 92.770 -44.7765
91.088066 92.730 -44.9199
91.748131 92.688 -45.0561
92.412979 92.646 -45.1860
93.082642 92.604 -45.3135
93.757156 92.562 -45.4445
94.436562 92.521 -45.5793
95.120888 92.480 -45.7138
95.810173 92.437 -45.8403
96.504456 92.391 -45.9516
97.203766 92.343 -46.0502
97.908142 92.294 -46.1426
98.617622 92.245 -46.2291
99.332245 92.198 -46.3131
100.052048 92.153 -46.3974
100.777069 92.110 -46.4888
101.507339 92.067 -46.5905
102.242905 92.024 -46.7052
102.983795 91.981 -46.8300
103.730057 91.938 -46.9625
104.481728 91.895 -47.0942
105.238846 91.851 -47.2227
106.001450 91.804 -47.3458
106.769577 91.754 -47.4629
107.543274 91.702 -47.5670
108.322578 91.649 -47.6545
109.107529 91.596 -47.7267
109.898170 91.547 -47.7939
110.694534 91.500 -47.8635
111.496674 91.454 -47.9379
112.304626 91.411 -48.0162
113.118431 91.367 -48.0958
113.938133 91.323 -48.1725
114.763779 91.278 -48.2434
115.595406 91.232 -48.3078
116.433060 91.186 -48.3795
117.276779 91.142 -48.4712
118.126617 91.099 -48.5880
118.982613 91.057 -48.7359
119.844810 91.014 -48.9008
120.713257 90.967 -49.0576
121.587997 90.918 -49.1833
122.469070 90.867 -49.2710
123.356529 90.815 -49.3286
124.250420 90.762 -49.3692
125.150787 90.709 -49.4054
126.057678 90.654 -49.4426
126.971146 90.598 -49.4846
127.891228 90.542 -49.5372
128.817978 90.486 -49.5952
129.751450 90.429 -49.6571
130.691681 90.374 -49.7229
131.638733 90.320 -49.7944
132.592636 90.268 -49.8746
133.553452 90.217 -49.9631
134.521240 90.168 -50.0490
135.496033 90.119 -50.1182
136.477890 90.070 -50.1661
137.466858 90.021 -50.1926
138.462997 89.971 -50.2004
139.466354 89.918 -50.1953
140.476990 89.862 -50.1846
141.494949 89.804 -50.1820
142.520279 89.746 -50.1967
143.553040 89.689 -50.2297
144.593277 89.634 -50.2766
145.641052 89.578 -50.3256
146.696426 89.523 -50.3615
147.759445 89.466 -50.3691
148.830170 89.407 -50.3434
149.908661 89.344 -50.2838
150.994965 89.278 -50.1947
152.089142 89.208 -50.0900
153.191238 89.136 -49.9740
154.301331 89.062 -49.8470
155.419464 88.987 -49.7029
156.545700 88.911 -49.5315
157.680099 88.833 -49.3352
158.822708 88.759 -49.1232
159.973602 88.691 -48.8877
161.132843 88.635 -48.6131
162.300476 88.592 -48.2817
163.476578 88.560 -47.8957
164.661194 88.541 -47.4763
165.854401 88.537 -47.0466
167.056244 88.548 -46.6228
168.266800 88.574 -46.2306
169.486130 88.611 -45.9025
170.714294 88.651 -45.6721
171.951355 88.688 -45.5528
173.197388 88.721 -45.5254
174.452454 88.749 -45.5732
175.716614 88.771 -45.7003
176.989929 88.785 -45.8957
178.272476 88.788 -46.1292
179.564316 88.778 -46.3824
180.865509 88.760 -46.6620
182.176132 88.738 -46.9657
183.496262 88.715 -47.2635
184.825958 88.691 -47.5679
186.165283 88.662 -47.8978
187.514313 88.628 -48.2390
188.873123 88.587 -48.5682
190.241776 88.540 -48.8620
191.620346 88.486 -49.1262
193.008911 88.427 -49.3426
194.407532 88.366 -49.5184
195.816284 88.304 -49.6416
197.235245 88.242 -49.7310
198.664490 88.182 -49.7991
200.104095 88.122 -49.8555
201.554138 88.063 -49.9059
203.014679 88.005 -49.9540
204.485809 87.949 -50.0071
205.967590 87.897 -50.0713
207.460114 87.846 -50.1493
208.963455 87.797 -50.2258
210.477692 87.749 -50.2889
212.002899 87.698 -50.3297
213.539154 87.646 -50.3476
215.086548 87.591 -50.3494
216.645157 87.536 -50.3392
218.215057 87.481 -50.3317
219.796341 87.426 -50.3289
221.389069 87.371 -50.3273
222.993347 87.318 -50.3272
224.609253 87.266 -50.3256
226.236862 87.215 -50.3231
227.876266 87.165 -50.3192
229.527557 87.116 -50.3105
231.190811 87.067 -50.2951
232.866119 87.017 -50.2708
234.553558 86.967 -50.2444
236.253235 86.916 -50.2101
237.965225 86.866 -50.1701
239.689621 86.817 -50.1335
241.426514 86.769 -50.0997
243.175995 86.721 -50.0694
244.938141 86.672 -50.0377
246.713058 86.623 -49.9999
248.500839 86.572 -49.9501
250.301575 86.521 -49.8986
252.115356 86.470 -49.8460
253.942291 86.420 -49.7932
255.782455 86.371 -49.7443
257.635956 86.324 -49.6927
259.502899 86.278 -49.6413
261.383362 86.234 -49.5840
263.277466 86.190 -49.5095
265.185272 86.147 -49.4252
267.106903 86.105 -49.3302
269.042480 86.063 -49.2303
270.992065 86.022 -49.1244
272.955780 85.983 -49.0234
274.933716 85.944 -48.9353
276.925995 85.908 -48.8647
278.932709 85.873 -48.8251
280.953979 85.839 -48.8084
282.989899 85.806 -48.8050
285.040558 85.771 -48.8110
287.106079 85.734 -48.8031
289.186554 85.694 -48.7653
291.282104 85.650 -48.6959
293.392853 85.604 -48.6080
295.518890 85.559 -48.5145
297.660339 85.515 -48.4287
299.817322 85.473 -48.3531
301.989929 85.431 -48.2831
304.178284 85.390 -48.2229
306.382477 85.348 -48.1699
308.602661 85.305 -48.1181
310.838928 85.261 -48.0658
313.091400 85.216 -48.0127
315.360199 85.172 -47.9573
317.645416 85.128 -47.9051
319.947205 85.086 -47.8539
322.265686 85.047 -47.8083
324.600952 85.010 -47.7653
326.953156 84.975 -47.7185
329.322388 84.941 -47.6639
331.708801 84.908 -47.5905
334.112488 84.873 -47.4866
336.533600 84.836 -47.3508
338.972260 84.798 -47.1990
341.428589 84.759 -47.0500
343.902710 84.721 -46.9172
346.394775 84.684 -46.8010
348.904907 84.649 -46.7045
351.433228 84.613 -46.6273
353.979858 84.577 -46.5749
356.544952 84.542 -46.5377
359.128632 84.506 -46.5063
361.731018 84.471 -46.4742
364.352264 84.435 -46.4350
366.992523 84.399 -46.3910
369.651917 84.361 -46.3370
372.330566 84.322 -46.2845
375.028625 84.282 -46.2180
377.746246 84.242 -46.1497
380.483551 84.202 -46.0755
383.240692 84.162 -46.0012
386.017822 84.123 -45.9239
388.815063 84.084 -45.8409
391.632568 84.045 -45.7600
394.470490 84.006 -45.6734
397.328979 83.968 -45.5822
400.208191 83.930 -45.4892
403.108276 83.893 -45.3876
406.029358 83.857 -45.2875
408.971619 83.820 -45.1885
411.935181 83.785 -45.0885
414.920227 83.749 -44.9834
417.926910 83.714 -44.8824
420.955383 83.680 -44.7786
424.005798 83.645 -44.6806
427.078308 83.612 -44.5819
430.173096 83.578 -44.4838
433.290314 83.545 -44.3869
436.430115 83.513 -44.2861
439.592682 83.480 -44.1875
442.778137 83.448 -44.0903
445.986694 83.416 -43.9938
449.218506 83.383 -43.8929
452.473724 83.351 -43.7923
455.752533 83.319 -43.6922
459.055115 83.288 -43.5943
462.381622 83.256 -43.4916
465.732239 83.225 -43.3947
469.107117 83.194 -43.3011
472.506470 83.163 -43.2044
475.930450 83.132 -43.1149
479.379242 83.102 -43.0260
482.853027 83.073 -42.9376
486.351990 83.043 -42.8524
489.876282 83.013 -42.7632
493.426117 82.983 -42.6751
497.001678 82.954 -42.5958
500.603149 82.924 -42.5118
504.230713 82.894 -42.4328
507.884583 82.864 -42.3556
511.564911 82.833 -42.2829
515.271912 82.803 -42.2096
519.005798 82.772 -42.1356
522.766724 82.741 -42.0686
526.554932 82.709 -41.9965
530.370544 82.676 -41.9329
534.213806 82.643 -41.8632
538.084961 82.609 -41.7993
541.984131 82.573 -41.7360
545.911560 82.537 -41.6652
549.867432 82.500 -41.5956
553.851990 82.462 -41.5235
557.865417 82.423 -41.4460
561.907959 82.383 -41.3602
565.979797 82.342 -41.2710
570.081116 82.300 -41.1744
574.212158 82.256 -41.0689
578.373108 82.213 -40.9528
582.564209 82.168 -40.8232
586.785706 82.124 -40.6773
591.037781 82.079 -40.5193
595.320679 82.035 -40.3455
599.634644 81.991 -40.1543
603.979858 81.949 -39.9503
608.356567 81.907 -39.7331
612.764954 81.867 -39.5033
617.205322 81.829 -39.2676
621.677856 81.793 -39.0199
626.182800 81.758 -38.7646
630.720398 81.726 -38.4998
635.290833 81.695 -38.2311
639.894409 81.667 -37.9592
644.531372 81.640 -37.6842
649.201904 81.615 -37.4094
653.906311 81.592 -37.1370
658.644775 81.570 -36.8627
663.417603 81.551 -36.5921
668.224976 81.532 -36.3230
673.067200 81.516 -36.0562
677.944519 81.500 -35.7922
682.857178 81.485 -35.5316
687.805420 81.471 -35.2739
692.789551 81.458 -35.0135
697.809814 81.447 -34.7613
702.866455 81.436 -34.5084
707.959717 81.426 -34.2583
713.089905 81.417 -34.0133
718.257263 81.409 -33.7733
723.462036 81.401 -33.5272
728.704529 81.394 -33.2882
733.985046 81.388 -33.0529
739.303833 81.382 -32.8145
744.661133 81.378 -32.5785
750.057251 81.374 -32.3457
755.492493 81.371 -32.1116
760.967102 81.368 -31.8799
766.481384 81.367 -31.6474
772.035645 81.367 -31.4158
777.630127 81.367 -31.1815
783.265137 81.368 -30.9515
788.940979 81.369 -30.7167
794.657959 81.372 -30.4882
800.416382 81.376 -30.2614
806.216553 81.380 -30.0313
812.058716 81.385 -29.8056
817.943237 81.391 -29.5773
823.870361 81.398 -29.3500
829.840454 81.406 -29.1273
835.853821 81.416 -28.9032
841.910767 81.426 -28.6817
848.011597 81.438 -28.4578
854.156616 81.451 -28.2410
860.346191 81.466 -28.0246
866.580627 81.481 -27.8098
872.860229 81.497 -27.5963
879.185364 81.515 -27.3894
885.556274 81.534 -27.1807
891.973389 81.553 -26.9810
898.437012 81.574 -26.7778
904.947449 81.597 -26.5807
911.505066 81.620 -26.3933
918.110229 81.645 -26.2045
924.763245 81.671 -26.0237
931.464478 81.698 -25.8404
938.214233 81.727 -25.6673
945.012939 81.757 -25.5012
951.860901 81.788 -25.3458
958.758484 81.821 -25.1910
965.706055 81.854 -25.0481
972.703979 81.889 -24.9077
979.752563 81.925 -24.7730
986.852234 81.962 -24.6524
994.003357 82.000 -24.5361
1001.206299 82.039 -24.4287
1008.461426 82.079 -24.3279
1015.769165 82.120 -24.2440
1023.129822 82.162 -24.1639
1030.543823 82.205 -24.0925
1038.011597 82.248 -24.0335
1045.533447 82.292 -23.9839
1053.109863 82.337 -23.9412
1060.741089 82.382 -23.9159
1068.427612 82.428 -23.8998
1076.169922 82.475 -23.8894
1083.968262 82.522 -23.8938
1091.823120 82.569 -23.9100
1099.734863 82.617 -23.9331
1107.703979 82.664 -23.9654
1115.730835 82.712 -24.0111
1123.815918 82.760 -24.0633
1131.959595 82.808 -24.1250
1140.162231 82.856 -24.2058
1148.424316 82.904 -24.2857
1156.746216 82.952 -24.3816
1165.128418 83.000 -24.4843
1173.571411 83.047 -24.5961
1182.075562 83.094 -24.7182
1190.641357 83.141 -24.8413
1199.269287 83.188 -24.9790
1207.959717 83.234 -25.1231
1216.713135 83.280 -25.2715
1225.529907 83.326 -25.4321
1234.410645 83.371 -25.5955
1243.355713 83.416 -25.7702
1252.365601 83.460 -25.9482
1261.440796 83.505 -26.1378
1270.581665 83.548 -26.3239
1279.788818 83.592 -26.5198
1289.062744 83.635 -26.7232
1298.403809 83.678 -26.9287
1307.812622 83.720 -27.1371
1317.289551 83.762 -27.3558
1326.835205 83.803 -27.5692
1336.449951 83.844 -27.7881
1346.134399 83.885 -28.0098
1355.889038 83.925 -28.2393
1365.714355 83.965 -28.4680
1375.610840 84.005 -28.6982
1385.579102 84.046 -28.9281
1395.619629 84.086 -29.1664
1405.732910 84.125 -29.4046
1415.919434 84.165 -29.6476
1426.179810 84.205 -29.8882
1436.514526 84.245 -30.1341
1446.924072 84.284 -30.3708
1457.409058 84.324 -30.6186
1467.970093 84.365 -30.8648
1478.607666 84.405 -31.1160
1489.322266 84.445 -31.3601
1500.114502 84.486 -31.6077
1510.984985 84.527 -31.8573
1521.934204 84.568 -32.1151
1532.962769 84.610 -32.3633
1544.071289 84.652 -32.6172
1555.260254 84.695 -32.8692
1566.530273 84.739 -33.1220
1577.881958 84.783 -33.3659
1589.315918 84.828 -33.6254
1600.832764 84.873 -33.8794
1612.433105 84.920 -34.1269
1624.117432 84.968 -34.3812
1635.886475 85.016 -34.6330
1647.740723 85.066 -34.8881
1659.680908 85.118 -35.1380
1671.707642 85.171 -35.3927
1683.821533 85.225 -35.6496
1696.023193 85.281 -35.9086
1708.313232 85.340 -36.1587
1720.692383 85.400 -36.4166
1733.161255 85.462 -36.6757
1745.720459 85.527 -36.9471
1758.370728 85.594 -37.2177
1771.112549 85.664 -37.4996
1783.946777 85.737 -37.7771
1796.874023 85.812 -38.0606
1809.894897 85.891 -38.3738
1823.010132 85.973 -38.6872
1836.220459 86.059 -39.0131
1849.526489 86.148 -39.3611
1862.928955 86.241 -39.7237
1876.428467 86.337 -40.1197
1890.025879 86.437 -40.5363
1903.721802 86.538 -40.9873
1917.516968 86.641 -41.4619
1931.412109 86.745 -41.9695
1945.407959 86.850 -42.5022
1959.505127 86.955 -43.0716
1973.704468 87.061 -43.6775
1988.006714 87.168 -44.3174
2002.412598 87.275 -45.0011
2016.922852 87.382 -45.7185
2031.538330 87.489 -46.4749
2046.259644 87.595 -47.2634
2061.087646 87.699 -48.0827
2076.023193 87.801 -48.9224
2091.066895 87.899 -49.7968
2106.219727 87.995 -50.6839
2121.482178 88.086 -51.5999
2136.855225 88.175 -52.5186
2152.339844 88.260 -53.4538
2167.936523 88.343 -54.3936
2183.646240 88.423 -55.3672
2199.469727 88.502 -56.3362
2215.407959 88.578 -57.3170
2231.461670 88.653 -58.3028
2247.631836 88.727 -59.2899
2263.919189 88.800 -60.2803
2280.324463 88.871 -61.2713
2296.848633 88.943 -62.2767
2313.492432 89.014 -63.2925
2330.256836 89.085 -64.3156
2347.142822 89.155 -65.3443
2364.151123 89.226 -66.3772
2381.282715 89.298 -67.4164
2398.538574 89.369 -68.4759
2415.919434 89.442 -69.5426
2433.426270 89.515 -70.6169
2451.059814 89.588 -71.7063
2468.821289 89.663 -72.8185
2486.711426 89.738 -73.9389
2504.731201 89.813 -75.0992
2522.881592 89.889 -76.2725
2541.163330 89.966 -77.4589
2559.577637 90.043 -78.6623
2578.125488 90.120 -79.8727
2596.807617 90.198 -81.1563
2615.625244 90.276 -82.4417
2634.579102 90.354 -83.7581
2653.670410 90.432 -85.0885
2672.899902 90.509 -86.4457
2692.268799 90.587 -87.8393
2711.778076 90.664 -89.2813
2731.428711 90.740 -90.7477
2751.221680 90.816 -92.2406
2771.158203 90.890 -93.7696
2791.239258 90.963 -95.3450
2811.465820 91.034 -96.9470
2831.838867 91.103 -98.5836
2852.359619 91.170 -100.2718
2873.029053 91.234 -101.9877
2893.848145 91.294 -103.7467
2914.818115 91.352 -105.5601
2935.940186 91.405 -107.3756
2957.215332 91.454 -109.2626
2978.644531 91.498 -111.1800
3000.229004 91.537 -113.1396
3021.969971 91.570 -115.1184
3043.868408 91.597 -117.1461
3065.925537 91.617 -119.2221
3088.142578 91.630 -121.3131
3110.520508 91.636 -123.4267
3133.060547 91.633 -125.5866
3155.763916 91.622 -127.7717
3178.631836 91.602 -129.9604
3201.665527 91.573 -132.1733
3224.866211 91.535 -134.4051
3248.234863 91.486 -136.6506
3271.772949 91.427 -138.8992
3295.481445 91.358 -141.1476
3319.361816 91.278 -143.3896
3343.415283 91.187 -145.6223
3367.643066 91.085 -147.8357
3392.046387 90.973 -150.0079
3416.626465 90.852 -152.1546
3441.384766 90.722 -154.2691
3466.322510 90.586 -156.3223
3491.440918 90.445 -158.3545
3516.741455 90.299 -160.3550
3542.225098 90.148 -162.3169
3567.893555 89.992 -164.2536
3593.748047 89.829 -166.1873
3619.789795 89.661 -168.0595
3646.020264 89.485 -169.9048
3672.440918 89.304 -171.7327
3699.052979 89.116 -173.5031
3725.857910 88.922 -175.2151
3752.856934 88.722 -176.8871
3780.051758 88.518 -178.4846
3807.443604 88.310 179.9656
3835.033936 88.099 178.4798
3862.824219 87.886 177.0653
3890.815918 87.671 175.7028
3919.010254 87.455 174.4050
3947.408936 87.241 173.1841
3976.013428 87.029 171.9935
4004.825195 86.820 170.8779
4033.845703 86.614 169.7979
4063.076660 86.412 168.7461
4092.519287 86.213 167.7492
4122.175293 86.017 166.7808
4152.046387 85.822 165.8444
4182.133789 85.629 164.9210
4212.439453 85.437 164.0302
4242.964355 85.246 163.1719
4273.710449 85.056 162.3545
4304.679688 84.867 161.5662
4335.873047 84.682 160.7978
4367.292480 84.499 160.0863
4398.939453 84.319 159.3980
4430.815918 84.143 158.7477
4462.923340 83.970 158.1366
4495.263672 83.801 157.5436
4527.838379 83.636 156.9913
4560.648926 83.475 156.4609
4593.697266 83.319 155.9561
4626.984863 83.166 155.4731
4660.513672 83.018 155.0269
4694.285645 82.874 154.5715
4728.302246 82.734 154.1741
4762.565430 82.598 153.7747
4797.077148 82.466 153.4019
4831.838867 82.338 153.0425
4866.852539 82.215 152.7153
4902.119629 82.096 152.3913
4937.642578 81.981 152.1013
4973.422852 81.871 151.8162
5009.462402 81.766 151.5583
5045.763184 81.665 151.3069
5082.326660 81.570 151.0794
5119.155273 81.480 150.8719
5156.250977 81.395 150.6721
5193.615234 81.315 150.4868
5231.250488 81.241 150.3261
5269.158203 81.173 150.1813
5307.340820 81.110 150.0314
5345.799805 81.054 149.9134
5384.537598 81.003 149.7949
5423.556152 80.959 149.6851
5462.857422 80.922 149.5919
5502.443359 80.891 149.4983
5542.316406 80.867 149.4106
5582.478516 80.850 149.3466
5622.931641 80.840 149.2612
5663.677734 80.838 149.1932
5704.719238 80.843 149.1314
5746.058105 80.856 149.0771
5787.696289 80.877 149.0355
5829.636230 80.906 148.9721
5871.880371 80.943 148.9246
5914.430664 80.990 148.8737
5957.289062 81.046 148.8168
6000.458008 81.112 148.7601
6043.939941 81.188 148.7266
6087.736816 81.274 148.6475
6131.851074 81.372 148.5978
6176.285156 81.481 148.5166
6221.041016 81.602 148.4398
6266.121094 81.736 148.3442
6311.527832 81.883 148.2355
6357.263672 82.045 148.1092
6403.331055 82.221 147.9534
6449.732422 82.413 147.7744
6496.469727 82.622 147.5677
6543.545898 82.847 147.3511
6590.962891 83.091 147.0602
6638.723633 83.354 146.7388
6686.830566 83.637 146.3726
6735.286133 83.941 145.9255
6784.092773 84.268 145.4140
6833.252930 84.619 144.8502
6882.769531 84.996 144.1915
6932.645020 85.400 143.4292
6982.881836 85.834 142.5323
7033.482910 86.298 141.5137
7084.450195 86.796 140.3254
7135.787109 87.330 138.9449
7187.496094 87.899 137.3527
7239.579590 88.505 135.4858
7292.040527 89.147 133.3010
7344.881836 89.822 130.7364
7398.105957 90.524 127.7588
7451.715820 91.244 124.2873
7505.713867 91.974 120.2552
7560.103516 92.697 115.6461
7614.887207 93.398 110.3928
7670.067871 94.058 104.4880
7725.648438 94.656 97.9818
7781.631836 95.175 90.9218
7838.020508 95.597 83.3853
7894.817871 95.908 75.5049
7952.026855 96.101 67.4013
8009.650391 96.175 59.2542
8067.691406 96.133 51.1768
8126.153320 95.986 43.3532
8185.038574 95.752 35.8725
8244.350586 95.448 28.7862
8304.092773 95.094 22.1701
8364.267578 94.711 15.9949
8424.878906 94.318 10.2436
8485.928711 93.929 4.8784
8547.420898 93.557 -0.1930
8609.359375 93.209 -5.0317
8671.746094 92.888 -9.7346
8734.584961 92.594 -14.3630
8797.878906 92.322 -18.9894
8861.631836 92.065 -23.6635
8925.846680 91.815 -28.4304
8990.527344 91.561 -33.2867
9055.676758 91.295 -38.2480
9121.297852 91.007 -43.2753
9187.394531 90.691 -48.3285
9253.969727 90.342 -53.3904
9321.027344 89.956 -58.3831
9388.571289 89.532 -63.2725
9456.604492 89.073 -68.0114
9525.130859 88.580 -72.5500
9594.154297 88.059 -76.8807
9663.677734 87.514 -80.9424
9733.705078 86.950 -84.7245
9804.239258 86.374 -88.2417
9875.285156 85.792 -91.4570
9946.845703 85.210 -94.4016
10018.924805 84.634 -97.0841
10091.526367 84.067 -99.5027
10164.653320 83.515 -101.6790
10238.310547 82.982 -103.6312
10312.501953 82.470 -105.3917
10387.230469 81.982 -106.9662
10462.500977 81.521 -108.3805
10538.316406 81.089 -109.6726
10614.681641 80.687 -110.8600
10691.599609 80.316 -111.9529
10769.075195 79.977 -112.9927
10847.112305 79.671 -114.0219
10925.714844 79.398 -115.0267
11004.886719 79.158 -116.0472
11084.632812 78.952 -117.0985
11164.957031 78.780 -118.1992
11245.863281 78.642 -119.4144
11327.355469 78.537 -120.7400
11409.438477 78.467 -122.1854
11492.116211 78.431 -123.8374
11575.392578 78.426 -125.6842
11659.272461 78.452 -127.7823
11743.760742 78.504 -130.1599
11828.861328 78.581 -132.8615
11914.578125 78.674 -135.9203
12000.916016 78.779 -139.3555
12087.879883 78.887 -143.1915
12175.473633 78.989 -147.4335
12263.702148 79.074 -152.0687
12352.570312 79.133 -157.0837
12442.082031 79.155 -162.4307
12532.242188 79.132 -168.0292
12623.055664 79.058 -173.8535
12714.527344 78.929 -179.7601
12806.662109 78.745 174.2836
12899.464844 78.507 168.4069
12992.939453 78.223 162.6835
13087.091797 77.900 157.1686
13181.925781 77.549 151.9432
13277.447266 77.182 147.0266
13373.661133 76.814 142.4432
13470.572266 76.456 138.1982
13568.185547 76.123 134.2675
13666.505859 75.825 130.6236
13765.539062 75.576 127.2203
13865.290039 75.383 123.9819
13965.763672 75.254 120.8536
14066.965820 75.196 117.7250
14168.900391 75.210 114.4762
14271.574219 75.295 111.0057
14374.992188 75.446 107.1627
14479.159180 75.651 102.8529
14584.081055 75.892 97.8954
14689.763672 76.143 92.2248
14796.211914 76.376 85.7853
14903.431641 76.555 78.5861
15011.427734 76.648 70.6599
15120.207031 76.622 62.1442
15229.774414 76.452 53.2269
15340.135742 76.123 44.1147
15451.296875 75.629 35.0789
15563.263672 74.975 26.2766
15676.041016 74.175 17.9177
15789.635742 73.248 10.0851
15904.053711 72.215 2.8805
16019.300781 71.099 -3.7639
16135.382812 69.921 -9.8889
16252.306641 68.698 -15.6208
16370.077148 67.444 -21.1104
16488.701172 66.168 -26.5156
16608.185547 64.874 -32.0867
16728.535156 63.565 -38.0091
16849.757812 62.241 -44.4915
16971.857422 60.903 -51.7698
17094.841797 59.557 -60.0494
17218.718750 58.219 -69.5739
17343.492188 56.918 -80.4128
17469.169922 55.700 -92.4782
17595.757812 54.625 -105.2792
17723.263672 53.753 -118.0163
17851.693359 53.119 -129.7466
17981.054688 52.720 -139.8535
18111.353516 52.516 -148.0670
18242.595703 52.449 -154.4272
18374.789062 52.464 -159.1316
18507.939453 52.522 -162.4038
18642.054688 52.596 -164.4524
18777.142578 52.672 -165.5233
18913.208984 52.743 -165.7498
19050.261719 52.805 -165.3462
19188.308594 52.860 -164.4524
19327.355469 52.906 -163.3210
19467.410156 52.943 -162.1626
19608.478516 52.970 -161.3633
19750.570312 52.988 -161.4036
19893.691406 52.997 -162.8787
20037.849609 0.000 193.5832
