* Measurement data measured by REW V5.30.4
* Source: Headset (2- CX31993 HIFI AUDIO), MICROPHONE (Master Volume), L, volume: 0.500
* Format: 256k Log Swept Sine, 1 sweep at -12.0 dBFS with no timing reference
* Dated: 06 23, 24 2:08:48 PM
* REW Settings:
*  C-weighting compensation: Off
*  Target level: 75.0 dB
* Note: ; 
* Measurement: Fengru MY88 Blue R
* Smoothing: 1/12 octave
* Frequency Step: 96 ppo
* Start Frequency: 20.141602 Hz
*
* Freq(Hz) SPL(dB) Phase(degrees)
20.141602 91.832 -0.7403
20.287556 91.835 -0.7641
20.434568 91.838 -0.8537
20.582645 91.842 -0.9966
20.731796 91.846 -1.1817
20.882027 91.848 -1.3996
21.033346 91.849 -1.6449
21.185762 91.848 -1.9158
21.339283 91.845 -2.1985
21.493916 91.839 -2.4864
21.649670 91.831 -2.7731
21.806553 91.821 -3.0529
21.964573 91.811 -3.3209
22.123737 91.799 -3.5802
22.284056 91.789 -3.8240
22.445536 91.779 -4.0499
22.608185 91.771 -4.2590
22.772013 91.764 -4.4539
22.937029 91.760 -4.6376
23.103241 91.758 -4.8188
23.270657 91.757 -4.9993
23.439285 91.758 -5.1789
23.609137 91.758 -5.3599
23.780218 91.759 -5.5433
23.952539 91.759 -5.7293
24.126110 91.758 -5.9229
24.300938 91.755 -6.1197
24.477032 91.751 -6.3167
24.654402 91.746 -6.5130
24.833057 91.740 -6.7088
25.013008 91.733 -6.9048
25.194263 91.726 -7.1083
25.376831 91.718 -7.3137
25.560722 91.710 -7.5221
25.745945 91.703 -7.7337
25.932510 91.694 -7.9482
26.120428 91.685 -8.1689
26.309708 91.675 -8.3913
26.500359 91.664 -8.6097
26.692390 91.653 -8.8211
26.885815 91.640 -9.0230
27.080641 91.627 -9.2167
27.276878 91.615 -9.4034
27.474539 91.602 -9.5808
27.673630 91.590 -9.7520
27.874165 91.579 -9.9209
28.076153 91.568 -10.0936
28.279604 91.557 -10.2750
28.484529 91.546 -10.4641
28.690941 91.535 -10.6617
28.898848 91.522 -10.8670
29.108261 91.509 -11.0802
29.319191 91.494 -11.2983
29.531651 91.479 -11.5158
29.745649 91.464 -11.7301
29.961199 91.450 -11.9394
30.178310 91.436 -12.1473
30.396996 91.424 -12.3510
30.617264 91.413 -12.5505
30.839128 91.402 -12.7468
31.062601 91.392 -12.9420
31.287693 91.382 -13.1384
31.514416 91.371 -13.3327
31.742783 91.360 -13.5250
31.972803 91.347 -13.7154
32.204491 91.334 -13.9082
32.437859 91.321 -14.1021
32.672916 91.308 -14.2985
32.909679 91.294 -14.4995
33.148155 91.280 -14.7090
33.388359 91.267 -14.9260
33.630306 91.253 -15.1472
33.874004 91.239 -15.3697
34.119469 91.225 -15.5919
34.366711 91.210 -15.8105
34.615746 91.195 -16.0210
34.866585 91.180 -16.2223
35.119244 91.164 -16.4167
35.373734 91.149 -16.6064
35.630066 91.132 -16.7920
35.888256 91.116 -16.9762
36.148315 91.098 -17.1633
36.410259 91.080 -17.3538
36.674103 91.062 -17.5458
36.939857 91.044 -17.7390
37.207539 91.026 -17.9349
37.477161 91.009 -18.1316
37.748737 90.993 -18.3286
38.022282 90.977 -18.5257
38.297806 90.962 -18.7258
38.575329 90.946 -18.9245
38.854862 90.930 -19.1209
39.136421 90.913 -19.3157
39.420021 90.895 -19.5092
39.705673 90.876 -19.7019
39.993397 90.857 -19.8954
40.283207 90.837 -20.0940
40.575115 90.817 -20.2953
40.869141 90.796 -20.4979
41.165295 90.775 -20.7008
41.463596 90.754 -20.8996
41.764057 90.732 -21.0892
42.066696 90.710 -21.2675
42.371529 90.687 -21.4356
42.678570 90.665 -21.5947
42.987835 90.642 -21.7491
43.299343 90.620 -21.9076
43.613110 90.598 -22.0742
43.929150 90.577 -22.2550
44.247478 90.557 -22.4569
44.568115 90.536 -22.6789
44.891075 90.515 -22.9160
45.216373 90.493 -23.1598
45.544029 90.469 -23.3971
45.874062 90.444 -23.6150
46.206486 90.419 -23.8069
46.541317 90.394 -23.9718
46.878574 90.371 -24.1156
47.218277 90.349 -24.2511
47.560440 90.328 -24.3887
47.905083 90.307 -24.5342
48.252224 90.284 -24.6901
48.601879 90.260 -24.8531
48.954067 90.234 -25.0185
49.308807 90.207 -25.1832
49.666119 90.178 -25.3427
50.026020 90.146 -25.4918
50.388531 90.112 -25.6260
50.753666 90.077 -25.7386
51.121449 90.042 -25.8324
51.491894 90.011 -25.9202
51.865025 89.984 -26.0203
52.240860 89.961 -26.1540
52.619419 89.942 -26.3325
53.000721 89.922 -26.5524
53.384785 89.900 -26.7996
53.771633 89.876 -27.0507
54.161285 89.851 -27.2881
54.553761 89.824 -27.5035
54.949081 89.799 -27.6973
55.347263 89.774 -27.8775
55.748333 89.749 -28.0499
56.152309 89.724 -28.2194
56.559212 89.697 -28.3882
56.969063 89.668 -28.5563
57.381886 89.638 -28.7261
57.797699 89.608 -28.8944
58.216526 89.577 -29.0605
58.638386 89.547 -29.2245
59.063305 89.518 -29.3879
59.491302 89.491 -29.5540
59.922401 89.464 -29.7226
60.356625 89.438 -29.8946
60.793995 89.410 -30.0668
61.234531 89.381 -30.2375
61.678261 89.349 -30.4056
62.125206 89.315 -30.5704
62.575390 89.281 -30.7316
63.028835 89.247 -30.8873
63.485569 89.213 -31.0365
63.945610 89.181 -31.1749
64.408989 89.149 -31.3020
64.875725 89.117 -31.4150
65.345840 89.082 -31.5134
65.819366 89.042 -31.5995
66.296318 88.998 -31.6825
66.776726 88.947 -31.7720
67.260620 88.891 -31.8708
67.748016 88.828 -31.9740
68.238945 88.765 -32.0780
68.733429 88.706 -32.1937
69.231499 88.657 -32.3527
69.733177 88.618 -32.5909
70.238495 88.584 -32.9133
70.747475 88.551 -33.2752
71.260139 88.517 -33.6031
71.776520 88.486 -33.8363
72.296638 88.462 -33.9590
72.820526 88.447 -34.0016
73.348213 88.435 -34.0124
73.879723 88.423 -34.0298
74.415085 88.406 -34.0758
74.954330 88.383 -34.1559
75.497482 88.355 -34.2667
76.044571 88.325 -34.3989
76.595619 88.293 -34.5398
77.150665 88.261 -34.6779
77.709732 88.229 -34.8058
78.272850 88.198 -34.9210
78.840050 88.168 -35.0250
79.411354 88.138 -35.1199
79.986801 88.107 -35.2094
80.566422 88.072 -35.2981
81.150238 88.035 -35.3920
81.738289 87.995 -35.5010
82.330597 87.954 -35.6345
82.927200 87.914 -35.7899
83.528122 87.874 -35.9508
84.133400 87.835 -36.1015
84.743065 87.798 -36.2334
85.357147 87.761 -36.3487
85.975677 87.723 -36.4564
86.598694 87.684 -36.5615
87.226227 87.642 -36.6664
87.858307 87.598 -36.7676
88.494965 87.553 -36.8611
89.136238 87.508 -36.9533
89.782158 87.464 -37.0550
90.432755 87.421 -37.1730
91.088066 87.379 -37.2987
91.748131 87.337 -37.4133
92.412979 87.297 -37.5057
93.082642 87.259 -37.5791
93.757156 87.222 -37.6481
94.436562 87.184 -37.7220
95.120888 87.144 -37.8024
95.810173 87.103 -37.8852
96.504456 87.062 -37.9635
97.203766 87.021 -38.0362
97.908142 86.981 -38.1044
98.617622 86.942 -38.1648
99.332245 86.902 -38.2205
100.052048 86.860 -38.2756
100.777069 86.814 -38.3376
101.507339 86.765 -38.4091
102.242905 86.713 -38.4926
102.983795 86.661 -38.5851
103.730057 86.613 -38.6810
104.481728 86.568 -38.7655
105.238846 86.525 -38.8339
106.001450 86.483 -38.8928
106.769577 86.441 -38.9582
107.543274 86.398 -39.0369
108.322578 86.356 -39.1280
109.107529 86.313 -39.2212
109.898170 86.269 -39.3049
110.694534 86.223 -39.3688
111.496674 86.173 -39.4174
112.304626 86.119 -39.4680
113.118431 86.063 -39.5368
113.938133 86.007 -39.6330
114.763779 85.958 -39.7654
115.595406 85.916 -39.9462
116.433060 85.883 -40.2058
117.276779 85.859 -40.5706
118.126617 85.842 -41.0372
118.982613 85.829 -41.5538
119.844810 85.813 -41.9844
120.713257 85.791 -42.1682
121.587997 85.765 -42.0263
122.469070 85.736 -41.6109
123.356529 85.698 -41.0537
124.250420 85.647 -40.5073
125.150787 85.580 -40.1182
126.057678 85.502 -39.9853
126.971146 85.426 -40.1265
127.891228 85.369 -40.4736
128.817978 85.343 -40.8692
129.751450 85.344 -41.1248
130.691681 85.357 -41.1250
131.638733 85.356 -40.8970
132.592636 85.318 -40.5432
133.553452 85.228 -40.1541
134.521240 85.088 -39.8117
135.496033 84.908 -39.6116
136.477890 84.707 -39.6205
137.466858 84.510 -39.8249
138.462997 84.350 -40.1462
139.466354 84.248 -40.4720
140.476990 84.203 -40.6707
141.494949 84.199 -40.6581
142.520279 84.212 -40.4534
143.553040 84.227 -40.1524
144.593277 84.232 -39.8555
145.641052 84.222 -39.6171
146.696426 84.196 -39.4417
147.759445 84.155 -39.3047
148.830170 84.099 -39.1702
149.908661 84.033 -38.9833
150.994965 83.963 -38.7001
152.089142 83.897 -38.3293
153.191238 83.841 -37.8966
154.301331 83.803 -37.4249
155.419464 83.784 -36.9385
156.545700 83.781 -36.4685
157.680099 83.787 -36.0520
158.822708 83.794 -35.7206
159.973602 83.801 -35.4927
161.132843 83.808 -35.3876
162.300476 83.816 -35.4055
163.476578 83.826 -35.5211
164.661194 83.835 -35.6987
165.854401 83.848 -35.9167
167.056244 83.863 -36.1681
168.266800 83.875 -36.4449
169.486130 83.878 -36.7110
170.714294 83.869 -36.9242
171.951355 83.851 -37.0711
173.197388 83.828 -37.1731
174.452454 83.801 -37.2661
175.716614 83.770 -37.3804
176.989929 83.735 -37.5294
178.272476 83.695 -37.6993
179.564316 83.651 -37.8282
180.865509 83.603 -37.8568
182.176132 83.554 -37.7877
183.496262 83.507 -37.6575
184.825958 83.463 -37.5245
186.165283 83.422 -37.4213
187.514313 83.380 -37.3528
188.873123 83.334 -37.3171
190.241776 83.283 -37.2994
191.620346 83.229 -37.3007
193.008911 83.177 -37.2945
194.407532 83.129 -37.2843
195.816284 83.084 -37.2606
197.235245 83.042 -37.2436
198.664490 82.998 -37.2399
200.104095 82.951 -37.2458
201.554138 82.901 -37.2564
203.014679 82.847 -37.2741
204.485809 82.791 -37.3071
205.967590 82.733 -37.3574
207.460114 82.674 -37.4230
208.963455 82.612 -37.4873
210.477692 82.548 -37.5300
212.002899 82.480 -37.5237
213.539154 82.411 -37.4557
215.086548 82.345 -37.3392
216.645157 82.286 -37.1945
218.215057 82.235 -37.0477
219.796341 82.191 -36.9031
221.389069 82.153 -36.7564
222.993347 82.118 -36.6046
224.609253 82.084 -36.4406
226.236862 82.049 -36.2647
227.876266 82.012 -36.0829
229.527557 81.971 -35.9013
231.190811 81.925 -35.7249
232.866119 81.874 -35.5540
234.553558 81.820 -35.3987
236.253235 81.767 -35.2590
237.965225 81.716 -35.1370
239.689621 81.668 -35.0267
241.426514 81.622 -34.9065
243.175995 81.577 -34.7677
244.938141 81.535 -34.6126
246.713058 81.495 -34.4492
248.500839 81.457 -34.2774
250.301575 81.420 -34.1016
252.115356 81.384 -33.9124
253.942291 81.348 -33.7062
255.782455 81.312 -33.4949
257.635956 81.276 -33.2876
259.502899 81.240 -33.1005
261.383362 81.204 -32.9341
263.277466 81.167 -32.7782
265.185272 81.130 -32.6384
267.106903 81.093 -32.5098
269.042480 81.055 -32.3904
270.992065 81.016 -32.2698
272.955780 80.977 -32.1513
274.933716 80.936 -32.0368
276.925995 80.895 -31.9223
278.932709 80.853 -31.8113
280.953979 80.812 -31.6906
282.989899 80.771 -31.5548
285.040558 80.731 -31.4128
287.106079 80.690 -31.2578
289.186554 80.650 -31.0876
291.282104 80.608 -30.9025
293.392853 80.565 -30.7086
295.518890 80.520 -30.5113
297.660339 80.472 -30.3164
299.817322 80.426 -30.1153
301.989929 80.383 -29.8966
304.178284 80.344 -29.6676
306.382477 80.309 -29.4345
308.602661 80.275 -29.2023
310.838928 80.240 -28.9778
313.091400 80.202 -28.7662
315.360199 80.163 -28.5702
317.645416 80.121 -28.3912
319.947205 80.080 -28.2100
322.265686 80.041 -28.0111
324.600952 80.006 -27.7840
326.953156 79.978 -27.5325
329.322388 79.956 -27.2723
331.708801 79.938 -27.0165
334.112488 79.921 -26.7711
336.533600 79.902 -26.5322
338.972260 79.881 -26.2975
341.428589 79.857 -26.0694
343.902710 79.828 -25.8589
346.394775 79.796 -25.6713
348.904907 79.760 -25.5079
351.433228 79.721 -25.3553
353.979858 79.682 -25.2026
356.544952 79.641 -25.0350
359.128632 79.601 -24.8510
361.731018 79.562 -24.6575
364.352264 79.523 -24.4576
366.992523 79.486 -24.2549
369.651917 79.450 -24.0401
372.330566 79.416 -23.8223
375.028625 79.383 -23.5878
377.746246 79.350 -23.3529
380.483551 79.319 -23.1156
383.240692 79.287 -22.8805
386.017822 79.255 -22.6412
388.815063 79.223 -22.3935
391.632568 79.190 -22.1472
394.470490 79.157 -21.8980
397.328979 79.124 -21.6495
400.208191 79.090 -21.4046
403.108276 79.057 -21.1551
406.029358 79.024 -20.9086
408.971619 78.992 -20.6615
411.935181 78.961 -20.4092
414.920227 78.931 -20.1462
417.926910 78.901 -19.8825
420.955383 78.871 -19.6122
424.005798 78.842 -19.3444
427.078308 78.814 -19.0730
430.173096 78.786 -18.8001
433.290314 78.759 -18.5274
436.430115 78.732 -18.2498
439.592682 78.705 -17.9728
442.778137 78.678 -17.6956
445.986694 78.651 -17.4182
449.218506 78.625 -17.1361
452.473724 78.600 -16.8539
455.752533 78.575 -16.5713
459.055115 78.550 -16.2890
462.381622 78.525 -15.9995
465.732239 78.500 -15.7133
469.107117 78.475 -15.4279
472.506470 78.449 -15.1349
475.930450 78.424 -14.8419
479.379242 78.401 -14.5427
482.853027 78.379 -14.2432
486.351990 78.358 -13.9543
489.876282 78.339 -13.6732
493.426117 78.319 -13.4020
497.001678 78.299 -13.1409
500.603149 78.277 -12.8704
504.230713 78.256 -12.5966
507.884583 78.234 -12.3165
511.564911 78.212 -12.0350
515.271912 78.191 -11.7499
519.005798 78.169 -11.4636
522.766724 78.148 -11.1848
526.554932 78.126 -10.9013
530.370544 78.103 -10.6262
534.213806 78.079 -10.3448
538.084961 78.054 -10.0690
541.984131 78.029 -9.7931
545.911560 78.003 -9.5091
549.867432 77.977 -9.2267
553.851990 77.949 -8.9439
557.865417 77.920 -8.6585
561.907959 77.889 -8.3667
565.979797 77.857 -8.0714
570.081116 77.824 -7.7667
574.212158 77.790 -7.4507
578.373108 77.756 -7.1227
582.564209 77.721 -6.7811
586.785706 77.687 -6.4232
591.037781 77.653 -6.0517
595.320679 77.619 -5.6615
599.634644 77.585 -5.2499
603.979858 77.552 -4.8202
608.356567 77.520 -4.3708
612.764954 77.490 -3.9023
617.205322 77.460 -3.4232
621.677856 77.433 -2.9297
626.182800 77.407 -2.4309
630.720398 77.382 -1.9284
635.290833 77.360 -1.4257
639.894409 77.339 -0.9184
644.531372 77.321 -0.4025
649.201904 77.305 0.1206
653.906311 77.291 0.6485
658.644775 77.279 1.1844
663.417603 77.269 1.7220
668.224976 77.262 2.2627
673.067200 77.257 2.8040
677.944519 77.253 3.3438
682.857178 77.252 3.8795
687.805420 77.252 4.4104
692.789551 77.254 4.9420
697.809814 77.257 5.4649
702.866455 77.260 5.9901
707.959717 77.264 6.5153
713.089905 77.269 7.0380
718.257263 77.275 7.5574
723.462036 77.281 8.0840
728.704529 77.289 8.6051
733.985046 77.297 9.1242
739.303833 77.306 9.6477
744.661133 77.317 10.1693
750.057251 77.328 10.6863
755.492493 77.342 11.2024
760.967102 77.357 11.7154
766.481384 77.374 12.2305
772.035645 77.392 12.7474
777.630127 77.411 13.2704
783.265137 77.430 13.7919
788.940979 77.449 14.3205
794.657959 77.469 14.8451
800.416382 77.491 15.3698
806.216553 77.513 15.8997
812.058716 77.537 16.4281
817.943237 77.563 16.9621
823.870361 77.591 17.4972
829.840454 77.620 18.0283
835.853821 77.651 18.5613
841.910767 77.683 19.0930
848.011597 77.715 19.6293
854.156616 77.748 20.1610
860.346191 77.783 20.6937
866.580627 77.818 21.2250
872.860229 77.855 21.7547
879.185364 77.894 22.2770
885.556274 77.934 22.7999
891.973389 77.977 23.3119
898.437012 78.021 23.8247
904.947449 78.066 24.3287
911.505066 78.112 24.8225
918.110229 78.160 25.3205
924.763245 78.209 25.8157
931.464478 78.259 26.3189
938.214233 78.310 26.8165
945.012939 78.363 27.3109
951.860901 78.417 27.7970
958.758484 78.473 28.2842
965.706055 78.530 28.7603
972.703979 78.589 29.2334
979.752563 78.649 29.6996
986.852234 78.711 30.1506
994.003357 78.773 30.5972
1001.206299 78.837 31.0357
1008.461426 78.902 31.4697
1015.769165 78.968 31.8904
1023.129822 79.036 32.3114
1030.543823 79.104 32.7275
1038.011597 79.173 33.1339
1045.533447 79.242 33.5323
1053.109863 79.312 33.9253
1060.741089 79.383 34.3026
1068.427612 79.455 34.6741
1076.169922 79.527 35.0449
1083.968262 79.600 35.4064
1091.823120 79.674 35.7607
1099.734863 79.749 36.1119
1107.703979 79.825 36.4566
1115.730835 79.901 36.7900
1123.815918 79.978 37.1186
1131.959595 80.055 37.4392
1140.162231 80.133 37.7423
1148.424316 80.212 38.0484
1156.746216 80.290 38.3416
1165.128418 80.368 38.6326
1173.571411 80.446 38.9203
1182.075562 80.524 39.2035
1190.641357 80.602 39.4907
1199.269287 80.680 39.7672
1207.959717 80.760 40.0407
1216.713135 80.839 40.3140
1225.529907 80.920 40.5797
1234.410645 81.001 40.8471
1243.355713 81.083 41.1071
1252.365601 81.165 41.3668
1261.440796 81.248 41.6174
1270.581665 81.331 41.8743
1279.788818 81.414 42.1246
1289.062744 81.498 42.3711
1298.403809 81.582 42.6195
1307.812622 81.667 42.8683
1317.289551 81.752 43.1095
1326.835205 81.838 43.3583
1336.449951 81.924 43.6036
1346.134399 82.012 43.8486
1355.889038 82.100 44.0883
1365.714355 82.190 44.3311
1375.610840 82.281 44.5733
1385.579102 82.372 44.8160
1395.619629 82.465 45.0510
1405.732910 82.559 45.2878
1415.919434 82.654 45.5212
1426.179810 82.751 45.7574
1436.514526 82.849 45.9877
1446.924072 82.949 46.2265
1457.409058 83.051 46.4545
1467.970093 83.155 46.6850
1478.607666 83.260 46.9118
1489.322266 83.368 47.1467
1500.114502 83.477 47.3783
1510.984985 83.588 47.6068
1521.934204 83.701 47.8246
1532.962769 83.817 48.0485
1544.071289 83.934 48.2628
1555.260254 84.055 48.4746
1566.530273 84.177 48.6812
1577.881958 84.303 48.8917
1589.315918 84.431 49.0806
1600.832764 84.562 49.2684
1612.433105 84.696 49.4566
1624.117432 84.834 49.6317
1635.886475 84.974 49.8032
1647.740723 85.119 49.9641
1659.680908 85.267 50.1213
1671.707642 85.420 50.2631
1683.821533 85.576 50.3914
1696.023193 85.737 50.5055
1708.313232 85.903 50.6151
1720.692383 86.074 50.7023
1733.161255 86.250 50.7722
1745.720459 86.432 50.8120
1758.370728 86.620 50.8333
1771.112549 86.814 50.8210
1783.946777 87.015 50.7870
1796.874023 87.222 50.7163
1809.894897 87.435 50.5823
1823.010132 87.654 50.4118
1836.220459 87.878 50.1911
1849.526489 88.107 49.9082
1862.928955 88.340 49.5679
1876.428467 88.577 49.1487
1890.025879 88.817 48.6596
1903.721802 89.060 48.0819
1917.516968 89.304 47.4212
1931.412109 89.548 46.6635
1945.407959 89.791 45.8156
1959.505127 90.032 44.8679
1973.704468 90.269 43.8235
1988.006714 90.500 42.6870
2002.412598 90.724 41.4503
2016.922852 90.939 40.1252
2031.538330 91.144 38.7103
2046.259644 91.338 37.2172
2061.087646 91.518 35.6524
2076.023193 91.685 34.0313
2091.066895 91.838 32.3456
2106.219727 91.976 30.6243
2121.482178 92.099 28.8593
2136.855225 92.207 27.0853
2152.339844 92.299 25.2957
2167.936523 92.377 23.5094
2183.646240 92.440 21.7036
2199.469727 92.488 19.9226
2215.407959 92.523 18.1560
2231.461670 92.546 16.4156
2247.631836 92.557 14.7099
2263.919189 92.556 13.0411
2280.324463 92.546 11.4165
2296.848633 92.525 9.8259
2313.492432 92.496 8.2770
2330.256836 92.459 6.7762
2347.142822 92.414 5.3284
2364.151123 92.363 3.9377
2381.282715 92.306 2.6044
2398.538574 92.244 1.3163
2415.919434 92.178 0.0882
2433.426270 92.108 -1.0792
2451.059814 92.036 -2.1926
2468.821289 91.962 -3.2590
2486.711426 91.886 -4.2633
2504.731201 91.809 -5.2367
2522.881592 91.732 -6.1522
2541.163330 91.654 -7.0100
2559.577637 91.578 -7.8146
2578.125488 91.503 -8.5567
2596.807617 91.430 -9.3033
2615.625244 91.359 -9.9837
2634.579102 91.291 -10.6277
2653.670410 91.226 -11.2193
2672.899902 91.165 -11.7723
2692.268799 91.107 -12.2980
2711.778076 91.054 -12.8097
2731.428711 91.005 -13.2848
2751.221680 90.962 -13.7274
2771.158203 90.923 -14.1484
2791.239258 90.890 -14.5599
2811.465820 90.862 -14.9443
2831.838867 90.840 -15.3117
2852.359619 90.825 -15.6817
2873.029053 90.815 -16.0330
2893.848145 90.813 -16.3837
2914.818115 90.816 -16.7487
2935.940186 90.827 -17.0788
2957.215332 90.845 -17.4470
2978.644531 90.870 -17.8159
3000.229004 90.902 -18.2016
3021.969971 90.942 -18.5856
3043.868408 90.990 -19.0033
3065.925537 91.047 -19.4607
3088.142578 91.111 -19.9314
3110.520508 91.185 -20.4313
3133.060547 91.268 -20.9942
3155.763916 91.360 -21.6113
3178.631836 91.463 -22.2756
3201.665527 91.575 -23.0244
3224.866211 91.696 -23.8718
3248.234863 91.825 -24.8330
3271.772949 91.960 -25.9182
3295.481445 92.099 -27.1436
3319.361816 92.238 -28.5196
3343.415283 92.373 -30.0553
3367.643066 92.501 -31.7475
3392.046387 92.619 -33.5758
3416.626465 92.724 -35.5530
3441.384766 92.815 -37.6656
3466.322510 92.889 -39.8772
3491.440918 92.947 -42.2208
3516.741455 92.986 -44.6799
3542.225098 93.003 -47.2410
3567.893555 92.995 -49.9079
3593.748047 92.958 -52.6884
3619.789795 92.888 -55.5042
3646.020264 92.783 -58.3661
3672.440918 92.642 -61.2563
3699.052979 92.464 -64.1067
3725.857910 92.250 -66.8887
3752.856934 92.001 -69.5946
3780.051758 91.721 -72.1678
3807.443604 91.411 -74.6159
3835.033936 91.075 -76.9079
3862.824219 90.716 -79.0250
3890.815918 90.339 -80.9784
3919.010254 89.945 -82.7493
3947.408936 89.539 -84.3210
3976.013428 89.123 -85.7354
4004.825195 88.701 -86.9438
4033.845703 88.274 -87.9840
4063.076660 87.845 -88.8635
4092.519287 87.417 -89.5569
4122.175293 86.990 -90.0933
4152.046387 86.566 -90.4733
4182.133789 86.147 -90.7232
4212.439453 85.735 -90.8333
4242.964355 85.330 -90.8157
4273.710449 84.933 -90.6741
4304.679688 84.547 -90.4317
4335.873047 84.171 -90.1082
4367.292480 83.806 -89.6764
4398.939453 83.451 -89.1781
4430.815918 83.106 -88.6044
4462.923340 82.771 -87.9579
4495.263672 82.446 -87.2622
4527.838379 82.130 -86.4963
4560.648926 81.822 -85.6801
4593.697266 81.524 -84.8111
4626.984863 81.234 -83.8944
4660.513672 80.953 -82.9161
4694.285645 80.680 -81.9234
4728.302246 80.416 -80.8507
4762.565430 80.160 -79.7586
4797.077148 79.911 -78.6198
4831.838867 79.671 -77.4486
4866.852539 79.439 -76.2276
4902.119629 79.215 -74.9867
4937.642578 78.999 -73.6961
4973.422852 78.790 -72.3854
5009.462402 78.590 -71.0335
5045.763184 78.398 -69.6614
5082.326660 78.214 -68.2529
5119.155273 78.038 -66.8123
5156.250977 77.871 -65.3527
5193.615234 77.711 -63.8675
5231.250488 77.560 -62.3476
5269.158203 77.416 -60.8025
5307.340820 77.281 -59.2531
5345.799805 77.153 -57.6626
5384.537598 77.034 -56.0630
5423.556152 76.923 -54.4450
5462.857422 76.821 -52.8000
5502.443359 76.726 -51.1444
5542.316406 76.641 -49.4708
5582.478516 76.563 -47.7610
5622.931641 76.495 -46.0595
5663.677734 76.436 -44.3276
5704.719238 76.385 -42.5762
5746.058105 76.344 -40.8042
5787.696289 76.313 -39.0064
5829.636230 76.291 -37.2175
5871.880371 76.279 -35.3999
5914.430664 76.278 -33.5730
5957.289062 76.288 -31.7399
6000.458008 76.309 -29.8946
6043.939941 76.341 -28.0138
6087.736816 76.385 -26.1660
6131.851074 76.442 -24.2755
6176.285156 76.511 -22.4033
6221.041016 76.594 -20.5134
6266.121094 76.691 -18.6286
6311.527832 76.802 -16.7433
6357.263672 76.928 -14.8611
6403.331055 77.070 -12.9931
6449.732422 77.228 -11.1329
6496.469727 77.403 -9.2845
6543.545898 77.596 -7.4304
6590.962891 77.806 -5.6346
6638.723633 78.036 -3.8522
6686.830566 78.286 -2.0961
6735.286133 78.557 -0.4011
6784.092773 78.849 1.2513
6833.252930 79.164 2.8758
6882.769531 79.503 4.4339
6932.645020 79.867 5.9225
6982.881836 80.258 7.3170
7033.482910 80.677 8.6373
7084.450195 81.128 9.8438
7135.787109 81.611 10.9230
7187.496094 82.129 11.8678
7239.579590 82.685 12.6296
7292.040527 83.280 13.1803
7344.881836 83.916 13.4704
7398.105957 84.593 13.4741
7451.715820 85.310 13.1086
7505.713867 86.060 12.2928
7560.103516 86.837 10.9814
7614.887207 87.626 9.0635
7670.067871 88.409 6.4755
7725.648438 89.165 3.2032
7781.631836 89.870 -0.7704
7838.020508 90.498 -5.4243
7894.817871 91.025 -10.6649
7952.026855 91.432 -16.3846
8009.650391 91.702 -22.3847
8067.691406 91.831 -28.4998
8126.153320 91.822 -34.4686
8185.038574 91.688 -40.1115
8244.350586 91.450 -45.2887
8304.092773 91.135 -49.8491
8364.267578 90.774 -53.7667
8424.878906 90.397 -57.0263
8485.928711 90.034 -59.6567
8547.420898 89.709 -61.7643
8609.359375 89.445 -63.4462
8671.746094 89.254 -64.8558
8734.584961 89.146 -66.1303
8797.878906 89.123 -67.4338
8861.631836 89.181 -68.9203
8925.846680 89.309 -70.7475
8990.527344 89.489 -73.0256
9055.676758 89.700 -75.8759
9121.297852 89.914 -79.3457
9187.394531 90.101 -83.4488
9253.969727 90.229 -88.1782
9321.027344 90.269 -93.4149
9388.571289 90.196 -99.0318
9456.604492 89.991 -104.8430
9525.130859 89.645 -110.6288
9594.154297 89.160 -116.2014
9663.677734 88.544 -121.3309
9733.705078 87.815 -125.8657
9804.239258 86.994 -129.7168
9875.285156 86.106 -132.7833
9946.845703 85.176 -135.0701
10018.924805 84.227 -136.5927
10091.526367 83.281 -137.3820
10164.653320 82.357 -137.5103
10238.310547 81.470 -137.0559
10312.501953 80.632 -136.1139
10387.230469 79.848 -134.7487
10462.500977 79.123 -133.0366
10538.316406 78.460 -131.0562
10614.681641 77.857 -128.8555
10691.599609 77.314 -126.4657
10769.075195 76.830 -123.9422
10847.112305 76.404 -121.3363
10925.714844 76.035 -118.6401
11004.886719 75.721 -115.8968
11084.632812 75.464 -113.1232
11164.957031 75.264 -110.3398
11245.863281 75.122 -107.6132
11327.355469 75.039 -104.9426
11409.438477 75.018 -102.3431
11492.116211 75.061 -99.9133
11575.392578 75.172 -97.6604
11659.272461 75.351 -95.6708
11743.760742 75.600 -94.0151
11828.861328 75.916 -92.7949
11914.578125 76.293 -92.1123
12000.916016 76.722 -92.0627
12087.879883 77.185 -92.7470
12175.473633 77.662 -94.2392
12263.702148 78.124 -96.5762
12352.570312 78.543 -99.7661
12442.082031 78.887 -103.7446
12532.242188 79.126 -108.3711
12623.055664 79.236 -113.5164
12714.527344 79.201 -118.8947
12806.662109 79.013 -124.3099
12899.464844 78.679 -129.4682
12992.939453 78.214 -134.1510
13087.091797 77.642 -138.1931
13181.925781 76.993 -141.4434
13277.447266 76.301 -143.8542
13373.661133 75.599 -145.4085
13470.572266 74.922 -146.1397
13568.185547 74.301 -146.1357
13666.505859 73.764 -145.5074
13765.539062 73.336 -144.3999
13865.290039 73.038 -143.0018
13965.763672 72.885 -141.4963
14066.965820 72.887 -140.1381
14168.900391 73.043 -139.2044
14271.574219 73.340 -138.9523
14374.992188 73.749 -139.6666
14479.159180 74.222 -141.5261
14584.081055 74.702 -144.7262
14689.763672 75.120 -149.2618
14796.211914 75.408 -155.0278
14903.431641 75.504 -161.7637
15011.427734 75.358 -169.1095
15120.207031 74.946 -176.5720
15229.774414 74.267 176.3457
15340.135742 73.343 170.0499
15451.296875 72.212 164.8883
15563.263672 70.916 160.9980
15676.041016 69.498 158.5101
15789.635742 68.003 157.3994
15904.053711 66.471 157.6458
16019.300781 64.941 159.0518
16135.382812 63.447 161.4448
16252.306641 62.017 164.5730
16370.077148 60.676 168.1769
16488.701172 59.440 172.0120
16608.185547 58.324 175.7579
16728.535156 57.335 179.1653
16849.757812 56.481 -178.0372
16971.857422 55.768 -176.1447
17094.841797 55.199 -175.4123
17218.718750 54.774 -176.1330
17343.492188 54.479 -178.4636
17469.169922 54.291 177.4745
17595.757812 54.171 171.7496
17723.263672 54.073 164.5742
17851.693359 53.948 156.4133
17981.054688 53.759 147.8168
18111.353516 53.479 139.4377
18242.595703 53.103 131.8587
18374.789062 52.641 125.5177
18507.939453 52.117 120.7188
18642.054688 51.560 117.6368
18777.142578 51.002 116.2665
18913.208984 50.468 116.5938
19050.261719 49.980 118.4249
19188.308594 49.551 121.5720
19327.355469 49.188 125.6936
19467.410156 48.894 130.4669
19608.478516 48.669 135.3754
19750.570312 48.511 139.7975
19893.691406 48.413 142.9970
20037.849609 0.000 144.2159
